time	DeviceName	AccX(g)	AccY(g)	AccZ(g)	AsX(°/s)	AsY(°/s)	AsZ(°/s)	AngleX(°)	AngleY(°)	AngleZ(°)	HX(uT)	HY(uT)	HZ(uT)	Q0()	Q1()	Q2()	Q3()	Temperature(°C)	Version()	Battery level(%)
2025-3-13 10:6:7.812	WT901BLE68(E947F43FF2E9)	-0.564	0.018	-0.785	-1.221	-1.160	0.488	176.50	35.38	-25.03	22.344	-25.480	49.784	-0.03781	0.93262	-0.19693	-0.29984	27.6	13111	100
2025-3-13 10:6:7.863	WT901BLE68(490AABDC0D29)	0.007	-0.976	-0.186	-2.625	-1.465	0.000	-105.35	0.24	-27.54	-27.244	29.400	53.116	0.58902	-0.77222	0.19052	-0.14258	26.9	13111	100
2025-3-13 10:6:7.929	WT901BLE68(E947F43FF2E9)	-0.566	0.019	-0.787	-0.671	-0.305	0.366	176.50	35.46	-25.05	22.344	-25.480	49.784	-0.03781	0.93127	-0.19745	-0.30365	27.6	13111	100
2025-3-13 10:6:7.981	WT901BLE68(490AABDC0D29)	0.006	-0.974	-0.189	-2.502	-1.404	0.000	-105.34	0.24	-27.54	-27.244	29.400	53.116	0.58936	-0.77197	0.19046	-0.14270	26.9	13111	100
2025-3-13 10:6:7.990	WT901BLE68(E947F43FF2E9)	-0.566	0.018	-0.787	-0.916	-0.427	0.610	176.51	35.50	-25.07	22.344	-25.480	49.784	-0.03781	0.93127	-0.19745	-0.30365	27.6	13111	100
2025-3-13 10:6:8.42	WT901BLE68(490AABDC0D29)	0.004	-0.975	-0.190	-2.380	-1.648	0.000	-105.32	0.23	-27.55	-27.244	29.400	53.116	0.58936	-0.77197	0.19046	-0.14270	26.9	13111	100
2025-3-13 10:6:8.138	WT901BLE68(E947F43FF2E9)	-0.566	0.022	-0.783	-1.526	-0.183	0.488	176.50	35.51	-25.09	22.540	-25.480	49.882	-0.03781	0.93127	-0.19745	-0.30365	27.6	13111	100
2025-3-13 10:6:8.163	WT901BLE68(490AABDC0D29)	0.009	-0.979	-0.183	-2.380	-1.404	0.000	-105.30	0.23	-27.55	-27.146	29.302	52.920	0.58936	-0.77197	0.19046	-0.14270	26.9	13111	100
2025-3-13 10:6:8.199	WT901BLE68(E947F43FF2E9)	-0.567	0.018	-0.785	-1.099	0.000	0.366	176.48	35.54	-25.12	22.540	-25.480	49.882	-0.03781	0.93127	-0.19745	-0.30365	27.6	13111	100
2025-3-13 10:6:8.251	WT901BLE68(490AABDC0D29)	0.007	-0.974	-0.188	-2.563	-1.526	0.000	-105.28	0.23	-27.54	-27.146	29.302	52.920	0.58936	-0.77197	0.19046	-0.14270	26.9	13111	100
2025-3-13 10:6:8.321	WT901BLE68(E947F43FF2E9)	-0.568	0.021	-0.788	-1.953	-1.465	0.610	176.42	35.63	-25.19	22.540	-25.480	49.882	-0.03745	0.93051	-0.19815	-0.30560	27.6	13111	100
2025-3-13 10:6:8.371	WT901BLE68(490AABDC0D29)	0.008	-0.975	-0.188	-2.441	-1.831	0.000	-105.27	0.24	-27.49	-27.146	29.302	52.920	0.58994	-0.77164	0.19003	-0.14255	26.9	13111	100
2025-3-13 10:6:8.421	WT901BLE68(E947F43FF2E9)	-0.573	0.029	-0.786	-3.113	-4.272	0.305	176.26	35.88	-25.23	22.540	-25.480	49.882	-0.03745	0.93051	-0.19815	-0.30560	27.6	13111	100
2025-3-13 10:6:8.463	WT901BLE68(490AABDC0D29)	-0.008	-0.979	-0.189	-1.526	-2.686	-0.488	-105.22	0.24	-27.41	-27.146	29.302	52.920	0.58994	-0.77164	0.19003	-0.14255	26.9	13111	100
2025-3-13 10:6:8.528	WT901BLE68(E947F43FF2E9)	-0.646	0.055	-0.792	-11.902	-3.113	-5.737	175.73	36.64	-25.07	23.226	-26.460	49.686	-0.03745	0.93051	-0.19815	-0.30560	27.6	13111	100
2025-3-13 10:6:8.583	WT901BLE68(490AABDC0D29)	0.019	-0.970	-0.216	1.282	-3.845	-2.686	-104.97	0.14	-27.19	-27.048	29.400	52.920	0.58994	-0.77164	0.19003	-0.14255	26.9	13111	100
2025-3-13 10:6:8.622	WT901BLE68(E947F43FF2E9)	-0.849	0.064	-0.824	-42.664	9.399	-26.611	174.05	35.62	-22.85	23.226	-26.460	49.686	-0.03745	0.93051	-0.19815	-0.30560	27.6	13111	100
2025-3-13 10:6:8.642	WT901BLE68(490AABDC0D29)	0.039	-0.981	-0.186	2.747	-1.282	-5.920	-104.53	-0.27	-27.10	-27.048	29.400	52.920	0.58994	-0.77164	0.19003	-0.14255	26.9	13111	100
2025-3-13 10:6:8.738	WT901BLE68(E947F43FF2E9)	-0.759	0.049	-0.681	-52.063	-43.762	-57.190	172.31	38.79	-18.68	23.226	-26.460	49.686	0.01468	0.92911	-0.09216	-0.35773	27.6	13111	100
2025-3-13 10:6:8.763	WT901BLE68(490AABDC0D29)	0.042	-0.910	-0.155	-13.000	4.822	1.648	-104.68	-0.63	-28.05	-27.048	29.400	52.920	0.59070	-0.76947	0.18903	-0.15213	26.9	13111	100
2025-3-13 10:6:8.799	WT901BLE68(E947F43FF2E9)	-0.453	0.098	-0.666	-31.677	-8.667	-77.881	174.05	42.36	-10.93	23.226	-26.460	49.686	0.01468	0.92911	-0.09216	-0.35773	27.6	13111	100
2025-3-13 10:6:8.853	WT901BLE68(490AABDC0D29)	-0.047	-0.990	-0.153	-26.001	2.014	8.728	-106.60	-0.17	-28.16	-27.048	29.400	52.920	0.59070	-0.76947	0.18903	-0.15213	26.9	13111	100
2025-3-13 10:6:8.919	WT901BLE68(E947F43FF2E9)	-0.173	0.208	-0.560	-49.194	-19.653	-62.683	176.83	45.57	-3.24	31.458	-34.594	45.178	0.01468	0.92911	-0.09216	-0.35773	27.6	13111	100
2025-3-13 10:6:8.972	WT901BLE68(490AABDC0D29)	-0.034	-0.994	-0.277	-23.071	-7.996	6.897	-108.75	0.63	-28.36	-27.244	28.518	54.880	0.59070	-0.76947	0.18903	-0.15213	26.9	13111	100
2025-3-13 10:6:9.24	WT901BLE68(E947F43FF2E9)	-0.410	0.250	-0.631	-84.351	0.549	-1.709	172.13	44.43	-0.24	31.458	-34.594	45.178	0.01468	0.92911	-0.09216	-0.35773	27.6	13111	100
2025-3-13 10:6:9.63	WT901BLE68(490AABDC0D29)	-0.031	-0.991	-0.272	-2.319	-2.380	-0.244	-109.46	0.97	-28.25	-27.244	28.518	54.880	0.59070	-0.76947	0.18903	-0.15213	26.9	13111	100
2025-3-13 10:6:9.130	WT901BLE68(E947F43FF2E9)	-0.604	0.298	-0.614	-104.797	14.160	73.303	158.02	41.40	-5.92	31.458	-34.594	45.178	0.21484	0.91714	0.00348	-0.33551	27.6	13111	100
2025-3-13 10:6:9.181	WT901BLE68(490AABDC0D29)	-0.052	-1.095	-0.142	12.512	8.484	10.681	-108.50	1.28	-28.69	-27.244	28.518	54.880	0.57239	-0.77957	0.21249	-0.13922	26.9	13111	100
2025-3-13 10:6:9.224	WT901BLE68(E947F43FF2E9)	-0.545	0.328	-0.832	-80.261	36.621	100.891	143.84	33.84	-13.90	31.458	-34.594	45.178	0.21484	0.91714	0.00348	-0.33551	27.6	13111	100
2025-3-13 10:6:9.242	WT901BLE68(490AABDC0D29)	-0.166	-0.929	-0.307	25.024	1.465	14.160	-105.86	2.18	-30.57	-27.244	28.518	54.880	0.57239	-0.77957	0.21249	-0.13922	26.9	13111	100
2025-3-13 10:6:9.339	WT901BLE68(E947F43FF2E9)	-0.400	0.574	-0.720	-66.467	19.165	85.266	134.90	25.46	-19.80	14.308	-55.762	30.380	0.21484	0.91714	0.00348	-0.33551	27.6	13111	100
2025-3-13 10:6:9.391	WT901BLE68(490AABDC0D29)	-0.226	-0.909	-0.029	22.339	32.654	42.969	-104.15	4.43	-32.23	-24.794	30.968	51.450	0.57239	-0.77957	0.21249	-0.13922	26.9	13111	100
2025-3-13 10:6:9.400	WT901BLE68(E947F43FF2E9)	-0.271	0.823	-0.629	-58.167	22.217	59.753	128.33	19.11	-23.46	14.308	-55.762	30.380	0.21484	0.91714	0.00348	-0.33551	27.6	13111	100
2025-3-13 10:6:9.482	WT901BLE68(490AABDC0D29)	-0.124	-0.965	-0.061	21.729	-1.404	59.326	-101.72	8.99	-35.06	-24.794	30.968	51.450	0.57239	-0.77957	0.21249	-0.13922	26.9	13111	100
2025-3-13 10:6:9.549	WT901BLE68(E947F43FF2E9)	-0.196	0.921	-0.450	-63.232	22.217	39.490	122.47	14.56	-25.54	14.308	-55.762	30.380	0.47311	0.84470	-0.14294	-0.20526	27.6	13111	100
2025-3-13 10:6:9.572	WT901BLE68(490AABDC0D29)	-0.179	-0.998	-0.080	14.343	-4.028	53.528	-99.73	14.83	-35.38	-24.794	30.968	51.450	0.64130	-0.69373	0.31329	-0.09598	26.9	13111	100
2025-3-13 10:6:9.608	WT901BLE68(E947F43FF2E9)	-0.166	0.917	-0.466	-42.419	23.254	28.625	116.98	10.95	-26.69	14.308	-55.762	30.380	0.47311	0.84470	-0.14294	-0.20526	27.6	13111	100
2025-3-13 10:6:9.663	WT901BLE68(490AABDC0D29)	-0.199	-0.953	-0.117	9.094	15.137	22.644	-98.56	18.33	-36.10	-24.794	30.968	51.450	0.64130	-0.69373	0.31329	-0.09598	26.9	13111	100
2025-3-13 10:6:9.730	WT901BLE68(E947F43FF2E9)	-0.057	0.927	-0.303	-23.010	40.649	15.747	114.41	7.71	-26.13	-3.332	-58.506	13.622	0.47311	0.84470	-0.14294	-0.20526	27.6	13111	100
2025-3-13 10:6:9.781	WT901BLE68(490AABDC0D29)	-0.219	-0.911	-0.120	2.747	13.916	-6.226	-98.25	18.32	-36.99	-13.720	35.574	45.374	0.64130	-0.69373	0.31329	-0.09598	26.9	13111	100
2025-3-13 10:6:9.827	WT901BLE68(E947F43FF2E9)	-0.003	0.988	-0.257	-39.063	34.668	0.488	111.83	5.66	-24.39	-3.332	-58.506	13.622	0.47311	0.84470	-0.14294	-0.20526	27.6	13111	100
2025-3-13 10:6:9.874	WT901BLE68(490AABDC0D29)	-0.338	-0.935	-0.180	-8.423	-17.151	-24.963	-98.33	16.45	-36.27	-13.720	35.574	45.374	0.64130	-0.69373	0.31329	-0.09598	26.9	13111	100
2025-3-13 10:6:9.939	WT901BLE68(E947F43FF2E9)	0.053	1.015	-0.308	-40.466	22.949	3.418	107.70	4.47	-23.29	-3.332	-58.506	13.622	0.58542	0.78519	-0.13852	-0.14648	27.6	13111	100
2025-3-13 10:6:9.991	WT901BLE68(490AABDC0D29)	-0.303	-0.967	-0.120	-20.996	-4.517	-23.804	-99.54	14.14	-34.34	-13.720	35.574	45.374	0.63580	-0.70639	0.29437	-0.10013	26.9	13111	100
2025-3-13 10:6:10.30	WT901BLE68(E947F43FF2E9)	0.017	0.999	-0.326	-24.475	5.737	8.850	104.63	3.43	-23.38	-3.332	-58.506	13.622	0.58542	0.78519	-0.13852	-0.14648	27.6	13111	100
2025-3-13 10:6:10.53	WT901BLE68(490AABDC0D29)	-0.137	-0.995	-0.028	-16.663	-10.620	-14.465	-101.06	12.67	-33.07	-13.720	35.574	45.374	0.63580	-0.70639	0.29437	-0.10013	26.9	13111	100
2025-3-13 10:6:10.148	WT901BLE68(E947F43FF2E9)	0.066	0.994	-0.176	-29.114	29.114	10.681	102.07	1.92	-22.02	-5.390	-59.682	3.724	0.58542	0.78519	-0.13852	-0.14648	27.6	13111	100
2025-3-13 10:6:10.173	WT901BLE68(490AABDC0D29)	-0.048	-0.922	0.030	7.141	-11.353	-22.888	-100.84	11.46	-31.57	-18.914	33.712	47.824	0.63580	-0.70639	0.29437	-0.10013	26.9	13111	100
2025-3-13 10:6:10.209	WT901BLE68(E947F43FF2E9)	0.089	0.956	-0.172	-20.752	15.198	13.977	99.90	0.35	-20.54	-5.390	-59.682	3.724	0.58542	0.78519	-0.13852	-0.14648	27.6	13111	100
2025-3-13 10:6:10.263	WT901BLE68(490AABDC0D29)	0.021	-0.798	-0.200	0.305	-8.911	-41.992	-99.14	8.32	-29.82	-18.914	33.712	47.824	0.63580	-0.70639	0.29437	-0.10013	26.9	13111	100
2025-3-13 10:6:10.330	WT901BLE68(E947F43FF2E9)	0.020	0.953	-0.190	-6.165	16.968	24.902	98.59	-1.99	-19.11	-5.390	-59.682	3.724	0.64807	0.74457	-0.13977	-0.07724	27.6	13111	100
2025-3-13 10:6:10.381	WT901BLE68(490AABDC0D29)	0.003	-0.991	-0.306	-36.499	6.531	-51.819	-101.21	3.62	-29.20	-18.914	33.712	47.824	0.61517	-0.74771	0.20792	-0.13828	26.9	13111	100
2025-3-13 10:6:10.428	WT901BLE68(E947F43FF2E9)	0.182	0.931	-0.070	0.488	9.644	14.465	98.53	-4.29	-17.98	-5.390	-59.682	3.724	0.64807	0.74457	-0.13977	-0.07724	27.6	13111	100
2025-3-13 10:6:10.473	WT901BLE68(490AABDC0D29)	0.099	-0.652	-0.138	4.578	8.240	-8.606	-101.94	2.14	-29.67	-18.914	33.712	47.824	0.61517	-0.74771	0.20792	-0.13828	26.9	13111	100
2025-3-13 10:6:10.539	WT901BLE68(E947F43FF2E9)	0.184	0.933	-0.119	2.502	7.141	7.629	98.57	-5.27	-18.34	-9.212	-57.330	0.294	0.64807	0.74457	-0.13977	-0.07724	27.6	13111	100
2025-3-13 10:6:10.591	WT901BLE68(490AABDC0D29)	-0.061	-0.892	-0.193	-1.282	-10.010	-17.273	-101.76	1.41	-29.20	-27.538	30.380	48.608	0.61517	-0.74771	0.20792	-0.13828	26.9	13111	100
2025-3-13 10:6:10.630	WT901BLE68(E947F43FF2E9)	0.083	0.958	-0.161	2.136	3.906	5.981	98.60	-5.91	-18.47	-9.212	-57.330	0.294	0.64807	0.74457	-0.13977	-0.07724	27.6	13111	100
2025-3-13 10:6:10.651	WT901BLE68(490AABDC0D29)	0.043	-0.983	-0.061	-2.869	-5.554	-24.048	-101.85	-0.75	-27.58	-27.538	30.380	48.608	0.61517	-0.74771	0.20792	-0.13828	26.9	13111	100
2025-3-13 10:6:10.748	WT901BLE68(E947F43FF2E9)	0.157	0.993	-0.072	6.836	-0.793	10.742	99.01	-7.05	-18.29	-9.212	-57.330	0.294	0.64572	0.74304	-0.16617	-0.05667	27.6	13111	100
2025-3-13 10:6:10.801	WT901BLE68(490AABDC0D29)	0.073	-0.987	-0.148	-1.770	2.686	-12.329	-101.71	-2.11	-27.95	-27.538	30.380	48.608	0.60822	-0.75552	0.17407	-0.16974	26.9	13111	100
2025-3-13 10:6:10.810	WT901BLE68(E947F43FF2E9)	0.165	0.965	-0.142	9.399	-0.183	6.592	99.46	-7.71	-19.34	-9.212	-57.330	0.294	0.64572	0.74304	-0.16617	-0.05667	27.6	13111	100
2025-3-13 10:6:10.862	WT901BLE68(490AABDC0D29)	0.093	-0.977	-0.120	-5.554	1.770	-11.169	-101.77	-3.20	-28.15	-27.538	30.380	48.608	0.60822	-0.75552	0.17407	-0.16974	26.9	13111	100
2025-3-13 10:6:10.959	WT901BLE68(E947F43FF2E9)	0.188	0.966	-0.136	8.667	-1.038	7.690	100.29	-8.46	-19.65	-11.172	-56.154	2.058	0.64572	0.74304	-0.16617	-0.05667	27.6	13111	100
2025-3-13 10:6:10.983	WT901BLE68(490AABDC0D29)	0.109	-0.982	-0.139	-4.639	-1.160	-10.986	-102.13	-4.24	-28.20	-31.556	28.420	48.706	0.60822	-0.75552	0.17407	-0.16974	26.9	13111	100
2025-3-13 10:6:11.30	WT901BLE68(E947F43FF2E9)	0.198	0.969	-0.168	5.310	-6.531	5.005	100.92	-9.04	-20.01	-11.172	-56.154	2.058	0.64572	0.74304	-0.16617	-0.05667	27.6	13111	100
2025-3-13 10:6:11.72	WT901BLE68(490AABDC0D29)	0.124	-0.973	-0.147	-4.150	-3.113	-9.644	-102.33	-5.23	-28.09	-31.556	28.420	48.706	0.60822	-0.75552	0.17407	-0.16974	26.9	13111	100
2025-3-13 10:6:11.138	WT901BLE68(E947F43FF2E9)	0.206	0.966	-0.165	5.737	-5.188	5.432	101.48	-9.49	-19.98	-11.172	-56.154	2.058	0.63068	0.75183	-0.18723	-0.04285	27.6	13111	100
2025-3-13 10:6:11.191	WT901BLE68(490AABDC0D29)	0.172	-0.980	-0.153	-5.615	-6.348	-13.000	-102.69	-6.17	-27.69	-31.556	28.420	48.706	0.59457	-0.76608	0.15146	-0.19116	26.9	13111	100
2025-3-13 10:6:11.232	WT901BLE68(E947F43FF2E9)	0.215	0.958	-0.188	3.052	-2.014	4.395	101.83	-10.01	-19.82	-11.172	-56.154	2.058	0.63068	0.75183	-0.18723	-0.04285	27.6	13111	100
2025-3-13 10:6:11.283	WT901BLE68(490AABDC0D29)	0.198	-0.972	-0.150	-3.113	-3.662	-15.076	-102.93	-7.50	-27.08	-31.556	28.420	48.706	0.59457	-0.76608	0.15146	-0.19116	26.9	13111	100
2025-3-13 10:6:11.349	WT901BLE68(E947F43FF2E9)	0.214	0.951	-0.207	5.920	-2.991	4.883	102.33	-10.48	-19.23	-12.250	-55.468	4.214	0.63068	0.75183	-0.18723	-0.04285	27.6	13111	100
2025-3-13 10:6:11.430	WT901BLE68(490AABDC0D29)	0.215	-0.958	-0.147	-5.981	-3.784	-9.583	-103.16	-8.73	-26.77	-34.594	26.460	49.294	0.59457	-0.76608	0.15146	-0.19116	26.9	13111	100
2025-3-13 10:6:11.439	WT901BLE68(E947F43FF2E9)	0.232	0.946	-0.197	3.113	8.850	-1.648	102.60	-10.78	-18.00	-12.250	-55.468	4.214	0.63068	0.75183	-0.18723	-0.04285	27.6	13111	100
2025-3-13 10:6:11.462	WT901BLE68(490AABDC0D29)	0.196	-0.967	-0.156	-3.967	0.000	1.526	-103.50	-9.19	-26.75	-34.594	26.460	49.294	0.59457	-0.76608	0.15146	-0.19116	26.9	13111	100
2025-3-13 10:6:11.559	WT901BLE68(E947F43FF2E9)	0.167	0.971	-0.192	0.549	10.376	-15.442	102.50	-10.11	-16.16	-12.250	-55.468	4.214	0.62891	0.76343	-0.14578	-0.01660	27.6	13111	100
2025-3-13 10:6:11.583	WT901BLE68(490AABDC0D29)	0.165	-0.965	-0.160	-1.099	3.601	6.836	-103.46	-8.98	-27.28	-34.594	26.460	49.294	0.58649	-0.77078	0.14032	-0.20529	26.9	13111	100
2025-3-13 10:6:11.618	WT901BLE68(E947F43FF2E9)	0.166	0.975	-0.213	-4.456	15.198	-25.940	101.95	-8.40	-13.12	-12.250	-55.468	4.214	0.62891	0.76343	-0.14578	-0.01660	27.6	13111	100
2025-3-13 10:6:11.672	WT901BLE68(490AABDC0D29)	0.170	-0.979	-0.172	5.066	2.380	13.245	-102.93	-8.14	-27.95	-34.594	26.460	49.294	0.58649	-0.77078	0.14032	-0.20529	26.9	13111	100
2025-3-13 10:6:11.737	WT901BLE68(E947F43FF2E9)	-0.015	0.965	-0.178	-27.588	-1.770	-28.320	100.00	-5.89	-11.80	-7.448	-58.212	2.058	0.62891	0.76343	-0.14578	-0.01660	27.6	13111	100
2025-3-13 10:6:11.791	WT901BLE68(490AABDC0D29)	0.067	-0.988	-0.127	7.385	17.578	21.790	-101.90	-6.90	-29.82	-33.320	27.832	48.216	0.58649	-0.77078	0.14032	-0.20529	26.9	13111	100
2025-3-13 10:6:11.858	WT901BLE68(E947F43FF2E9)	0.113	0.971	-0.113	-4.333	-29.846	-19.714	99.33	-2.97	-14.28	-7.448	-58.212	2.058	0.62891	0.76343	-0.14578	-0.01660	27.6	13111	100
2025-3-13 10:6:11.883	WT901BLE68(490AABDC0D29)	0.094	-0.982	-0.090	13.794	0.000	17.700	-100.38	-5.24	-31.36	-33.320	27.832	48.216	0.58649	-0.77078	0.14032	-0.20529	26.9	13111	100
2025-3-13 10:6:11.951	WT901BLE68(E947F43FF2E9)	0.031	1.024	-0.164	8.362	-0.244	-1.709	99.83	-1.91	-15.83	-7.448	-58.212	2.058	0.63809	0.75616	-0.12064	-0.07993	27.6	13111	100
2025-3-13 10:6:12.1	WT901BLE68(490AABDC0D29)	0.083	-0.985	-0.075	18.311	-1.404	6.348	-98.77	-3.96	-30.83	-33.320	27.832	48.216	0.62427	-0.73367	0.18005	-0.19867	26.9	13111	100
2025-3-13 10:6:12.38	WT901BLE68(E947F43FF2E9)	0.035	0.979	-0.159	-1.221	-3.601	0.732	99.91	-1.90	-16.75	-7.448	-58.212	2.058	0.63809	0.75616	-0.12064	-0.07993	27.6	13111	100
2025-3-13 10:6:12.63	WT901BLE68(490AABDC0D29)	0.063	-0.990	-0.030	12.085	-3.723	4.578	-96.99	-3.55	-30.81	-33.320	27.832	48.216	0.62427	-0.73367	0.18005	-0.19867	26.9	13111	100
2025-3-13 10:6:12.159	WT901BLE68(E947F43FF2E9)	0.015	0.982	-0.173	10.925	6.165	0.305	100.45	-2.01	-17.25	-5.684	-59.388	4.508	0.63809	0.75616	-0.12064	-0.07993	27.6	13111	100
2025-3-13 10:6:12.211	WT901BLE68(490AABDC0D29)	0.055	-0.999	-0.023	3.235	5.005	9.033	-95.95	-3.01	-31.59	-30.380	30.968	43.904	0.62427	-0.73367	0.18005	-0.19867	26.9	13111	100
2025-3-13 10:6:12.220	WT901BLE68(E947F43FF2E9)	0.029	0.971	-0.219	2.197	-1.526	0.916	101.15	-2.16	-17.69	-5.684	-59.388	4.508	0.63809	0.75616	-0.12064	-0.07993	27.6	13111	100
2025-3-13 10:6:12.270	WT901BLE68(490AABDC0D29)	0.009	-1.002	-0.004	10.986	7.507	17.334	-95.03	-1.69	-32.17	-30.380	30.968	43.904	0.62427	-0.73367	0.18005	-0.19867	26.9	13111	100
2025-3-13 10:6:12.369	WT901BLE68(E947F43FF2E9)	0.026	0.959	-0.204	-1.099	-1.038	2.319	101.22	-2.12	-18.72	-5.684	-59.388	4.508	0.62952	0.75882	-0.14120	-0.08862	27.6	13111	100
2025-3-13 10:6:12.392	WT901BLE68(490AABDC0D29)	-0.030	-0.999	0.047	11.658	5.493	15.686	-93.53	-0.19	-33.05	-30.380	30.968	43.904	0.66019	-0.69440	0.20993	-0.19440	26.9	13111	100
2025-3-13 10:6:12.428	WT901BLE68(E947F43FF2E9)	0.055	0.975	-0.211	-7.690	-8.545	12.573	100.89	-2.75	-19.34	-5.684	-59.388	4.508	0.62952	0.75882	-0.14120	-0.08862	27.6	13111	100
2025-3-13 10:6:12.483	WT901BLE68(490AABDC0D29)	-0.015	-0.995	0.046	10.376	7.263	9.460	-92.37	0.95	-33.67	-30.380	30.968	43.904	0.66019	-0.69440	0.20993	-0.19440	26.9	13111	100
2025-3-13 10:6:12.551	WT901BLE68(E947F43FF2E9)	0.093	0.951	-0.187	-10.986	8.911	18.860	100.00	-4.14	-20.25	-7.644	-58.212	3.822	0.62952	0.75882	-0.14120	-0.08862	27.6	13111	100
2025-3-13 10:6:12.601	WT901BLE68(490AABDC0D29)	-0.022	-0.993	0.075	0.916	13.672	1.770	-91.59	1.26	-34.40	-27.538	33.124	40.082	0.66019	-0.69440	0.20993	-0.19440	26.9	13111	100
2025-3-13 10:6:12.639	WT901BLE68(E947F43FF2E9)	0.151	0.991	-0.156	-10.376	1.831	16.663	98.86	-5.88	-20.74	-7.644	-58.212	3.822	0.62952	0.75882	-0.14120	-0.08862	27.6	13111	100
2025-3-13 10:6:12.693	WT901BLE68(490AABDC0D29)	-0.011	-1.004	0.040	-2.136	11.292	0.366	-91.44	1.35	-35.66	-27.538	33.124	40.082	0.66019	-0.69440	0.20993	-0.19440	26.9	13111	100
2025-3-13 10:6:12.760	WT901BLE68(E947F43FF2E9)	0.136	0.960	-0.139	-4.089	0.916	10.010	98.26	-7.17	-21.24	-7.644	-58.212	3.822	0.65390	0.72940	-0.18610	-0.07526	27.6	13111	100
2025-3-13 10:6:12.813	WT901BLE68(490AABDC0D29)	-0.063	-0.998	0.075	0.610	5.005	5.249	-91.28	1.58	-36.43	-27.538	33.124	40.082	0.66803	-0.67456	0.23438	-0.20898	26.9	13111	100
2025-3-13 10:6:12.849	WT901BLE68(E947F43FF2E9)	0.128	0.975	-0.112	-9.583	-1.282	1.831	97.61	-7.70	-21.93	-7.644	-58.212	3.822	0.65390	0.72940	-0.18610	-0.07526	27.6	13111	100
2025-3-13 10:6:12.874	WT901BLE68(490AABDC0D29)	-0.059	-0.993	0.098	0.244	7.935	5.981	-90.86	2.20	-36.89	-27.538	33.124	40.082	0.66803	-0.67456	0.23438	-0.20898	26.9	13111	100
2025-3-13 10:6:12.991	WT901BLE68(490AABDC0D29)	-0.073	-0.989	0.071	-4.639	6.592	3.845	-90.81	2.67	-37.56	-26.656	33.614	38.220	0.66803	-0.67456	0.23438	-0.20898	26.9	13111	100
2025-3-13 10:6:13.0	WT901BLE68(E947F43FF2E9)	0.125	0.975	-0.124	-4.761	6.714	-2.869	96.88	-7.66	-21.37	-9.310	-57.036	1.764	0.65390	0.72940	-0.18610	-0.07526	27.6	13111	100
2025-3-13 10:6:13.59	WT901BLE68(E947F43FF2E9)	0.121	0.991	-0.122	-9.033	2.625	-4.700	96.19	-7.35	-20.65	-9.310	-57.036	1.764	0.65390	0.72940	-0.18610	-0.07526	27.6	13111	100
2025-3-13 10:6:13.81	WT901BLE68(490AABDC0D29)	-0.045	-0.989	0.055	-5.676	5.859	3.479	-91.04	3.08	-38.05	-26.656	33.614	38.220	0.66803	-0.67456	0.23438	-0.20898	26.9	13111	100
2025-3-13 10:6:13.147	WT901BLE68(E947F43FF2E9)	0.115	0.975	-0.083	-7.446	-0.366	-4.272	95.32	-6.95	-20.53	-9.310	-57.036	1.764	0.67157	0.71747	-0.16800	-0.07678	27.6	13111	100
2025-3-13 10:6:13.203	WT901BLE68(490AABDC0D29)	-0.063	-1.001	0.070	-4.150	4.578	0.977	-91.26	3.28	-38.33	-26.656	33.614	38.220	0.66660	-0.66833	0.25467	-0.20978	26.9	13111	100
2025-3-13 10:6:13.238	WT901BLE68(E947F43FF2E9)	0.107	0.999	-0.114	-14.343	-8.423	-4.517	94.66	-6.47	-20.41	-9.310	-57.036	1.764	0.67157	0.71747	-0.16800	-0.07678	27.6	13111	100
2025-3-13 10:6:13.293	WT901BLE68(490AABDC0D29)	-0.061	-1.003	0.070	1.038	-0.427	1.343	-91.31	3.50	-38.26	-26.656	33.614	38.220	0.66660	-0.66833	0.25467	-0.20978	26.9	13111	100
2025-3-13 10:6:13.360	WT901BLE68(E947F43FF2E9)	0.081	0.992	-0.056	-8.606	2.075	-5.737	93.52	-5.99	-20.34	-7.938	-57.526	-0.392	0.67157	0.71747	-0.16800	-0.07678	27.6	13111	100
2025-3-13 10:6:13.422	WT901BLE68(490AABDC0D29)	-0.063	-0.986	0.080	-4.517	-2.014	0.671	-91.10	3.59	-37.55	-26.166	33.810	38.220	0.66660	-0.66833	0.25467	-0.20978	26.9	13111	100
2025-3-13 10:6:13.449	WT901BLE68(E947F43FF2E9)	0.076	0.992	-0.078	-7.507	0.610	-4.211	92.86	-5.47	-20.42	-7.938	-57.526	-0.392	0.67157	0.71747	-0.16800	-0.07678	27.6	13111	100
2025-3-13 10:6:13.473	WT901BLE68(490AABDC0D29)	-0.077	-1.002	0.059	-6.775	9.399	3.296	-91.54	3.88	-38.02	-26.166	33.810	38.220	0.66660	-0.66833	0.25467	-0.20978	26.9	13111	100
2025-3-13 10:6:13.569	WT901BLE68(E947F43FF2E9)	0.094	0.977	-0.054	-5.249	-2.625	-0.549	92.03	-5.26	-21.02	-7.938	-57.526	-0.392	0.68964	0.69916	-0.16150	-0.09692	27.6	13111	100
2025-3-13 10:6:13.621	WT901BLE68(490AABDC0D29)	-0.036	-0.994	0.030	-8.240	8.118	1.343	-92.05	4.17	-38.69	-26.166	33.810	38.220	0.66122	-0.67084	0.26477	-0.20618	26.9	13111	100
2025-3-13 10:6:13.631	WT901BLE68(E947F43FF2E9)	0.070	1.019	-0.021	-3.906	5.249	-5.188	91.68	-4.95	-21.15	-7.938	-57.526	-0.392	0.68964	0.69916	-0.16150	-0.09692	27.6	13111	100
2025-3-13 10:6:13.681	WT901BLE68(490AABDC0D29)	-0.034	-1.002	0.073	-7.446	-4.333	-1.282	-92.62	4.19	-38.97	-26.166	33.810	38.220	0.66122	-0.67084	0.26477	-0.20618	26.9	13111	100
2025-3-13 10:6:13.751	WT901BLE68(E947F43FF2E9)	0.092	0.997	-0.009	-1.892	-0.366	0.854	91.32	-4.99	-21.96	-7.938	-57.526	-0.392	0.68964	0.69916	-0.16150	-0.09692	27.6	13111	100
2025-3-13 10:6:13.801	WT901BLE68(490AABDC0D29)	-0.084	-1.004	0.044	-3.662	-0.366	-1.770	-92.74	4.01	-38.60	-26.068	33.712	38.710	0.66122	-0.67084	0.26477	-0.20618	26.9	13111	100
2025-3-13 10:6:13.839	WT901BLE68(E947F43FF2E9)	0.080	0.992	-0.033	-1.160	-1.709	-1.648	91.31	-4.86	-22.93	-7.252	-57.624	-1.568	0.68964	0.69916	-0.16150	-0.09692	27.6	13111	100
2025-3-13 10:6:13.891	WT901BLE68(490AABDC0D29)	-0.097	-0.989	0.017	-6.775	1.587	2.991	-93.05	4.20	-38.58	-26.068	33.712	38.710	0.66122	-0.67084	0.26477	-0.20618	26.9	13111	100
2025-3-13 10:6:13.958	WT901BLE68(E947F43FF2E9)	0.063	1.000	-0.041	-0.977	-10.864	-2.441	91.21	-4.58	-24.33	-7.252	-57.624	-1.568	0.68701	0.69199	-0.18118	-0.12732	27.6	13111	100
2025-3-13 10:6:14.11	WT901BLE68(490AABDC0D29)	-0.080	-0.987	0.021	-7.690	-3.174	4.333	-93.48	4.61	-37.98	-26.068	33.712	38.710	0.65549	-0.68149	0.26303	-0.19131	26.9	13111	100
2025-3-13 10:6:14.49	WT901BLE68(E947F43FF2E9)	0.055	0.996	-0.042	6.226	-1.282	-7.629	91.48	-3.98	-25.41	-7.252	-57.624	-1.568	0.68701	0.69199	-0.18118	-0.12732	27.6	13111	100
2025-3-13 10:6:14.130	WT901BLE68(490AABDC0D29)	-0.115	-0.999	0.013	-11.292	-8.057	-0.977	-94.21	4.86	-37.31	-26.068	33.712	38.710	0.65549	-0.68149	0.26303	-0.19131	26.9	13111	100
2025-3-13 10:6:14.170	WT901BLE68(E947F43FF2E9)	-0.015	0.982	-0.057	8.301	3.723	-6.226	92.11	-3.39	-26.32	-5.978	-58.604	-0.686	0.68701	0.69199	-0.18118	-0.12732	27.6	13111	100
2025-3-13 10:6:14.226	WT901BLE68(490AABDC0D29)	0.004	-0.982	-0.003	-18.066	-21.667	-9.399	-95.16	4.69	-35.78	-25.774	33.418	41.062	0.65549	-0.68149	0.26303	-0.19131	26.9	13111	100
2025-3-13 10:6:14.259	WT901BLE68(E947F43FF2E9)	0.121	0.974	-0.083	-6.409	6.531	-6.226	92.04	-2.83	-26.15	-5.978	-58.604	-0.686	0.68701	0.69199	-0.18118	-0.12732	27.6	13111	100
2025-3-13 10:6:14.283	WT901BLE68(490AABDC0D29)	-0.040	-0.988	-0.037	-23.499	-27.832	-19.592	-96.87	3.62	-32.77	-25.774	33.418	41.062	0.65549	-0.68149	0.26303	-0.19131	26.9	13111	100
2025-3-13 10:6:14.379	WT901BLE68(E947F43FF2E9)	-0.032	1.009	-0.097	2.258	6.409	-11.597	91.85	-1.97	-26.13	-5.978	-58.604	-0.686	0.68021	0.69867	-0.16257	-0.15039	27.6	13111	100
2025-3-13 10:6:14.402	WT901BLE68(490AABDC0D29)	0.019	-0.979	-0.089	-26.001	-15.442	-13.550	-98.87	2.31	-30.66	-25.774	33.418	41.062	0.62567	-0.73544	0.20859	-0.15512	26.9	13111	100
2025-3-13 10:6:14.437	WT901BLE68(E947F43FF2E9)	-0.147	1.011	-0.049	-9.033	0.610	-10.803	91.63	-0.58	-25.60	-5.978	-58.604	-0.686	0.68021	0.69867	-0.16257	-0.15039	27.6	13111	100
2025-3-13 10:6:14.493	WT901BLE68(490AABDC0D29)	0.032	-0.985	-0.099	-25.024	-6.287	-12.817	-100.98	1.20	-29.53	-25.774	33.418	41.062	0.62567	-0.73544	0.20859	-0.15512	26.9	13111	100
2025-3-13 10:6:14.559	WT901BLE68(E947F43FF2E9)	0.159	1.240	-0.171	-22.095	-21.057	2.563	89.52	0.11	-27.41	-5.978	-58.604	-0.686	0.68021	0.69867	-0.16257	-0.15039	27.6	13111	100
2025-3-13 10:6:14.613	WT901BLE68(490AABDC0D29)	0.044	-1.002	-0.139	-12.329	-17.029	-10.437	-102.52	0.34	-28.09	-28.714	30.184	48.314	0.62567	-0.73544	0.20859	-0.15512	26.9	13111	100
2025-3-13 10:6:14.649	WT901BLE68(E947F43FF2E9)	-0.251	0.805	-0.152	28.931	196.472	-24.780	90.86	0.48	-18.46	-2.450	-59.486	-4.410	0.68021	0.69867	-0.16257	-0.15039	27.6	13111	100
2025-3-13 10:6:14.702	WT901BLE68(490AABDC0D29)	0.009	-0.982	-0.181	-7.874	-8.057	-8.057	-103.33	-0.37	-27.22	-28.714	30.184	48.314	0.62567	-0.73544	0.20859	-0.15512	26.9	13111	100
2025-3-13 10:6:14.770	WT901BLE68(E947F43FF2E9)	-0.072	0.980	0.083	25.696	6.470	-12.207	93.55	1.81	-2.52	-2.450	-59.486	-4.410	0.67252	0.73898	0.00314	-0.03876	27.6	13111	100
2025-3-13 10:6:14.827	WT901BLE68(490AABDC0D29)	0.076	-0.980	-0.201	-1.282	1.892	-7.935	-103.68	-1.02	-27.27	-28.714	30.184	48.314	0.59927	-0.76447	0.17764	-0.15738	26.9	13111	100
2025-3-13 10:6:14.859	WT901BLE68(E947F43FF2E9)	-0.029	1.036	-0.060	21.423	39.063	-6.775	95.82	3.66	-1.92	-2.450	-59.486	-4.410	0.67252	0.73898	0.00314	-0.03876	27.6	13111	100
2025-3-13 10:6:14.882	WT901BLE68(490AABDC0D29)	0.088	-0.994	-0.156	13.977	3.784	-7.690	-102.93	-1.94	-27.58	-28.714	30.184	48.314	0.59927	-0.76447	0.17764	-0.15738	26.9	13111	100
2025-3-13 10:6:14.979	WT901BLE68(E947F43FF2E9)	-0.045	1.124	0.064	-1.709	27.649	5.615	97.40	3.76	-2.16	4.214	-61.642	-4.214	0.67252	0.73898	0.00314	-0.03876	27.6	13111	100
2025-3-13 10:6:15.3	WT901BLE68(490AABDC0D29)	-0.015	-1.000	-0.117	23.010	3.418	2.808	-100.77	-2.34	-28.38	-30.282	29.890	46.746	0.59927	-0.76447	0.17764	-0.15738	26.9	13111	100
2025-3-13 10:6:15.38	WT901BLE68(E947F43FF2E9)	-0.021	0.980	-0.187	4.211	7.996	-0.977	98.03	3.13	-0.39	4.214	-61.642	-4.214	0.67252	0.73898	0.00314	-0.03876	27.6	13111	100
2025-3-13 10:6:15.93	WT901BLE68(490AABDC0D29)	0.053	-0.964	-0.124	22.339	-1.404	-2.258	-98.15	-2.29	-28.49	-30.282	29.890	46.746	0.59927	-0.76447	0.17764	-0.15738	26.9	13111	100
2025-3-13 10:6:15.159	WT901BLE68(E947F43FF2E9)	-0.015	0.986	-0.171	-4.089	5.005	13.184	97.96	2.42	0.02	4.214	-61.642	-4.214	0.67252	0.73898	0.00314	-0.03876	27.6	13111	100
2025-3-13 10:6:15.211	WT901BLE68(490AABDC0D29)	0.059	-1.026	0.020	15.076	4.639	-7.813	-96.30	-2.80	-29.21	-30.282	29.890	46.746	0.64490	-0.72119	0.16840	-0.18842	26.9	13111	100
2025-3-13 10:6:15.249	WT901BLE68(E947F43FF2E9)	0.025	0.979	-0.134	-5.005	5.798	11.719	97.55	1.14	0.54	4.214	-61.642	-4.214	0.65894	0.75204	0.01016	-0.00436	27.6	13111	100
2025-3-13 10:6:15.303	WT901BLE68(490AABDC0D29)	-0.265	-1.083	0.000	26.062	-23.621	-22.766	-94.41	-3.92	-28.27	-30.282	29.890	46.746	0.64490	-0.72119	0.16840	-0.18842	26.9	13111	100
2025-3-13 10:6:15.369	WT901BLE68(E947F43FF2E9)	0.031	0.980	-0.134	10.193	8.789	9.644	97.64	-0.01	1.51	2.352	-61.054	-4.214	0.65894	0.75204	0.01016	-0.00436	27.6	13111	100
2025-3-13 10:6:15.429	WT901BLE68(490AABDC0D29)	-0.055	-1.468	0.180	34.668	-91.736	-102.722	-91.38	-9.31	-22.94	-36.162	27.048	44.688	0.64490	-0.72119	0.16840	-0.18842	26.9	13111	100
2025-3-13 10:6:15.459	WT901BLE68(E947F43FF2E9)	0.030	0.989	-0.203	29.297	14.465	-2.747	99.64	-0.57	3.42	2.352	-61.054	-4.214	0.65894	0.75204	0.01016	-0.00436	27.6	13111	100
2025-3-13 10:6:15.512	WT901BLE68(490AABDC0D29)	-0.097	-1.046	-0.395	-26.550	-236.206	-144.043	-96.15	-21.70	-5.15	-36.162	27.048	44.688	0.64490	-0.72119	0.16840	-0.18842	26.9	13111	100
2025-3-13 10:6:15.580	WT901BLE68(E947F43FF2E9)	0.026	0.967	-0.231	20.081	8.972	-4.272	102.20	-0.37	5.27	2.352	-61.054	-4.214	0.62012	0.78244	0.04153	0.03772	27.6	13111	100
2025-3-13 10:6:15.633	WT901BLE68(490AABDC0D29)	-0.095	-0.740	-0.130	-27.710	-110.657	-10.986	-106.24	-23.62	10.39	-36.162	27.048	44.688	0.59268	-0.78174	-0.18634	-0.05280	26.9	13111	100
2025-3-13 10:6:15.668	WT901BLE68(E947F43FF2E9)	0.035	0.956	-0.264	4.944	6.470	1.465	103.26	-0.48	6.58	2.352	-61.054	-4.214	0.62012	0.78244	0.04153	0.03772	27.6	13111	100
2025-3-13 10:6:15.693	WT901BLE68(490AABDC0D29)	0.212	-0.684	-0.175	23.315	-86.426	117.554	-107.37	-12.69	14.82	-36.162	27.048	44.688	0.59268	-0.78174	-0.18634	-0.05280	26.9	13111	100
2025-3-13 10:6:15.789	WT901BLE68(E947F43FF2E9)	0.039	0.952	-0.289	2.502	13.855	6.836	103.67	-1.15	7.79	2.450	-61.740	-0.882	0.62012	0.78244	0.04153	0.03772	27.6	13111	100
2025-3-13 10:6:15.812	WT901BLE68(490AABDC0D29)	0.165	-1.022	-0.172	66.528	-36.987	173.828	-102.43	4.42	13.67	-14.994	28.420	61.838	0.59268	-0.78174	-0.18634	-0.05280	26.9	13111	100
2025-3-13 10:6:15.849	WT901BLE68(E947F43FF2E9)	0.050	0.919	-0.323	-0.305	36.072	10.315	103.90	-2.74	10.51	2.450	-61.740	-0.882	0.62012	0.78244	0.04153	0.03772	27.6	13111	100
2025-3-13 10:6:15.903	WT901BLE68(490AABDC0D29)	0.530	-1.187	-0.070	75.928	-18.311	151.367	-95.30	20.15	12.13	-14.994	28.420	61.838	0.59268	-0.78174	-0.18634	-0.05280	26.9	13111	100
2025-3-13 10:6:15.969	WT901BLE68(E947F43FF2E9)	0.180	0.990	-0.201	-3.235	52.612	23.438	103.66	-5.38	15.10	2.450	-61.740	-0.882	0.62012	0.78244	0.04153	0.03772	27.6	13111	100
2025-3-13 10:6:16.29	WT901BLE68(490AABDC0D29)	-1.054	-1.089	-0.528	17.090	-61.768	71.350	-88.25	30.68	14.81	-14.994	28.420	61.838	0.65753	-0.69312	0.09280	0.28018	26.9	13111	100
2025-3-13 10:6:16.90	WT901BLE68(E947F43FF2E9)	0.295	0.996	-0.257	-9.399	14.526	51.941	102.82	-9.96	15.95	2.450	-61.740	-0.882	0.60577	0.77841	0.05322	0.15558	27.6	13111	100
2025-3-13 10:6:16.112	WT901BLE68(490AABDC0D29)	-0.087	-1.012	0.831	-66.040	-113.342	-54.993	-89.75	26.05	22.27	-14.994	28.420	61.838	0.65753	-0.69312	0.09280	0.28018	26.9	13111	100
2025-3-13 10:6:16.179	WT901BLE68(E947F43FF2E9)	0.188	1.146	-0.333	-9.094	72.266	64.453	101.41	-16.52	19.40	-5.782	-56.546	-7.840	0.60577	0.77841	0.05322	0.15558	27.6	13111	100
2025-3-13 10:6:16.234	WT901BLE68(490AABDC0D29)	-0.179	-1.068	0.049	-56.213	-19.836	-59.814	-92.30	18.30	29.84	3.136	33.908	56.350	0.65753	-0.69312	0.09280	0.28018	26.9	13111	100
2025-3-13 10:6:16.269	WT901BLE68(E947F43FF2E9)	-0.083	1.792	-0.239	-38.940	170.593	135.376	96.77	-25.15	30.59	-5.782	-56.546	-7.840	0.60577	0.77841	0.05322	0.15558	27.6	13111	100
2025-3-13 10:6:16.293	WT901BLE68(490AABDC0D29)	-0.094	-1.009	-0.041	-34.485	-29.297	-43.823	-95.25	13.45	31.57	3.136	33.908	56.350	0.65753	-0.69312	0.09280	0.28018	26.9	13111	100
2025-3-13 10:6:16.389	WT901BLE68(E947F43FF2E9)	-0.319	0.727	-0.121	-0.427	-13.062	93.750	90.35	-37.60	39.16	-5.782	-56.546	-7.840	0.55096	0.72424	-0.00638	0.41443	27.6	13111	100
2025-3-13 10:6:16.413	WT901BLE68(490AABDC0D29)	-0.132	-1.018	-0.108	-19.958	4.700	-26.917	-97.62	9.66	30.83	3.136	33.908	56.350	0.61594	-0.74084	-0.14728	0.22351	26.9	13111	100
2025-3-13 10:6:16.449	WT901BLE68(E947F43FF2E9)	0.245	0.302	0.123	18.494	-26.672	-112.671	93.98	-36.27	33.63	-5.782	-56.546	-7.840	0.55096	0.72424	-0.00638	0.41443	27.6	13111	100
2025-3-13 10:6:16.503	WT901BLE68(490AABDC0D29)	-0.058	-0.970	-0.108	-10.742	-2.197	-23.438	-98.75	7.27	29.01	3.136	33.908	56.350	0.61594	-0.74084	-0.14728	0.22351	26.9	13111	100
2025-3-13 10:6:16.570	WT901BLE68(E947F43FF2E9)	0.117	1.036	-0.167	35.828	13.306	-262.512	98.78	-14.96	27.32	-5.782	-56.546	-7.840	0.55096	0.72424	-0.00638	0.41443	27.6	13111	100
2025-3-13 10:6:16.621	WT901BLE68(490AABDC0D29)	-0.012	-0.983	-0.127	-12.329	2.625	-32.104	-99.68	4.51	27.30	-4.704	33.026	60.760	0.61594	-0.74084	-0.14728	0.22351	26.9	13111	100
2025-3-13 10:6:16.659	WT901BLE68(E947F43FF2E9)	1.467	1.657	0.048	87.524	1.587	-237.061	103.30	10.29	38.95	15.974	-62.132	-9.310	0.55096	0.72424	-0.00638	0.41443	27.6	13111	100
2025-3-13 10:6:16.720	WT901BLE68(490AABDC0D29)	0.062	-0.982	-0.147	-9.338	2.075	-35.156	-100.51	1.29	25.59	-4.704	33.026	60.760	0.61594	-0.74084	-0.14728	0.22351	26.9	13111	100
2025-3-13 10:6:16.779	WT901BLE68(E947F43FF2E9)	-0.244	1.186	0.059	-14.526	-25.269	7.813	107.06	24.05	40.69	15.974	-62.132	-9.310	0.55096	0.72424	-0.00638	0.41443	27.6	13111	100
2025-3-13 10:6:16.833	WT901BLE68(490AABDC0D29)	-0.187	-1.101	-0.198	-12.207	-6.592	-59.509	-101.45	-3.15	24.47	-4.704	33.026	60.760	0.62357	-0.75034	-0.19934	0.09125	26.9	13111	100
2025-3-13 10:6:16.868	WT901BLE68(E947F43FF2E9)	0.057	0.839	-0.331	35.095	-39.734	81.726	104.00	15.21	38.56	15.974	-62.132	-9.310	0.60944	0.71243	0.33163	0.10452	27.6	13111	100
2025-3-13 10:6:16.923	WT901BLE68(490AABDC0D29)	-0.106	-1.461	-0.135	-39.063	30.090	-88.074	-102.96	-9.83	23.72	-4.704	33.026	60.760	0.62357	-0.75034	-0.19934	0.09125	26.9	13111	100
2025-3-13 10:6:16.989	WT901BLE68(E947F43FF2E9)	-0.054	1.054	-0.239	11.292	9.155	29.541	104.77	8.56	37.96	15.974	-62.132	-9.310	0.60944	0.71243	0.33163	0.10452	27.6	13111	100
2025-3-13 10:6:17.72	WT901BLE68(490AABDC0D29)	-0.445	-0.965	-0.163	-24.414	107.422	-109.375	-104.99	-22.01	16.39	-26.852	25.480	63.700	0.62357	-0.75034	-0.19934	0.09125	26.9	13111	100
2025-3-13 10:6:17.80	WT901BLE68(E947F43FF2E9)	-0.014	0.967	-0.221	1.282	10.254	25.330	105.47	5.33	38.83	21.168	-63.210	-5.684	0.60944	0.71243	0.33163	0.10452	27.6	13111	100
2025-3-13 10:6:17.101	WT901BLE68(490AABDC0D29)	0.048	-0.613	0.108	18.311	-13.733	96.069	-103.50	-20.46	10.91	-26.852	25.480	63.700	0.62357	-0.75034	-0.19934	0.09125	26.9	13111	100
2025-3-13 10:6:17.199	WT901BLE68(E947F43FF2E9)	0.040	0.969	-0.221	-6.775	4.089	26.550	105.05	2.48	39.09	21.168	-63.210	-5.684	0.57913	0.74435	0.25940	0.20770	27.6	13111	100
2025-3-13 10:6:17.221	WT901BLE68(490AABDC0D29)	0.300	-1.183	0.072	73.181	-7.202	222.290	-95.75	-0.90	5.05	-26.852	25.480	63.700	0.69525	-0.70392	0.07022	0.12680	26.9	13111	100
2025-3-13 10:6:17.259	WT901BLE68(E947F43FF2E9)	0.104	0.976	-0.191	-10.864	3.540	38.330	103.99	-0.69	38.79	21.168	-63.210	-5.684	0.57913	0.74435	0.25940	0.20770	27.6	13111	100
2025-3-13 10:6:17.321	WT901BLE68(490AABDC0D29)	0.758	-1.484	-0.069	71.106	-1.160	217.773	-88.28	21.21	4.67	-26.852	25.480	63.700	0.69525	-0.70392	0.07022	0.12680	26.9	13111	100
2025-3-13 10:6:17.379	WT901BLE68(E947F43FF2E9)	0.174	0.986	-0.190	-16.235	3.540	41.199	102.54	-4.60	38.34	21.168	-63.210	-5.684	0.57913	0.74435	0.25940	0.20770	27.6	13111	100
2025-3-13 10:6:17.461	WT901BLE68(490AABDC0D29)	0.438	-0.958	-0.180	-20.081	-3.174	-40.222	-86.08	30.43	1.68	5.488	32.928	55.272	0.69525	-0.70392	0.07022	0.12680	26.9	13111	100
2025-3-13 10:6:17.470	WT901BLE68(E947F43FF2E9)	0.031	1.082	-0.170	-25.757	8.911	57.678	100.43	-9.36	37.85	10.584	-62.524	-8.330	0.57913	0.74435	0.25940	0.20770	27.6	13111	100
2025-3-13 10:6:17.523	WT901BLE68(490AABDC0D29)	-0.127	-1.366	-0.442	-60.486	-28.137	-102.417	-88.02	22.82	5.26	5.488	32.928	55.272	0.69525	-0.70392	0.07022	0.12680	26.9	13111	100
2025-3-13 10:6:17.589	WT901BLE68(E947F43FF2E9)	0.320	1.467	-0.226	-68.176	32.471	100.769	95.43	-17.31	38.74	10.584	-62.524	-8.330	0.57913	0.74435	0.25940	0.20770	27.6	13111	100
2025-3-13 10:6:17.641	WT901BLE68(490AABDC0D29)	-0.148	-1.050	-0.012	-31.494	26.306	-32.471	-92.18	16.41	6.01	5.488	32.928	55.272	0.67032	-0.73062	0.05881	0.11530	26.9	13111	100
2025-3-13 10:6:17.678	WT901BLE68(E947F43FF2E9)	-0.067	0.655	-0.111	-59.326	74.463	97.229	87.14	-26.95	43.98	10.584	-62.524	-8.330	0.59296	0.68225	0.08871	0.41824	27.6	13111	100
2025-3-13 10:6:17.703	WT901BLE68(490AABDC0D29)	-0.146	-0.993	-0.102	-29.175	18.555	-30.640	-95.78	12.93	3.22	5.488	32.928	55.272	0.67032	-0.73062	0.05881	0.11530	26.9	13111	100
2025-3-13 10:6:17.800	WT901BLE68(E947F43FF2E9)	-0.036	0.542	-0.220	2.747	-22.034	-57.495	87.02	-27.66	40.05	0.980	-55.468	-18.424	0.59296	0.68225	0.08871	0.41824	27.6	13111	100
2025-3-13 10:6:17.821	WT901BLE68(490AABDC0D29)	-0.083	-0.977	-0.129	-15.503	5.371	-27.832	-97.97	9.94	1.49	-6.762	30.772	63.014	0.67032	-0.73062	0.05881	0.11530	26.9	13111	100
2025-3-13 10:6:17.859	WT901BLE68(E947F43FF2E9)	0.114	0.874	-0.187	67.383	-46.875	-164.246	93.33	-14.57	34.41	0.980	-55.468	-18.424	0.59296	0.68225	0.08871	0.41824	27.6	13111	100
2025-3-13 10:6:17.925	WT901BLE68(490AABDC0D29)	-0.038	-0.970	-0.138	-11.841	-3.235	-36.133	-99.02	6.89	1.01	-6.762	30.772	63.014	0.67032	-0.73062	0.05881	0.11530	26.9	13111	100
2025-3-13 10:6:17.980	WT901BLE68(E947F43FF2E9)	1.252	1.611	-0.059	100.342	-10.925	-231.262	103.00	7.08	32.18	0.980	-55.468	-18.424	0.59296	0.68225	0.08871	0.41824	27.6	13111	100
2025-3-13 10:6:18.30	WT901BLE68(490AABDC0D29)	-0.094	-0.994	-0.156	-9.521	0.854	-39.978	-99.89	3.27	0.88	-6.762	30.772	63.014	0.64072	-0.76758	0.00189	0.01407	26.9	13111	100
2025-3-13 10:6:18.68	WT901BLE68(E947F43FF2E9)	-0.242	1.168	0.504	4.272	-51.514	4.456	108.04	17.72	34.26	0.980	-55.468	-18.424	0.59140	0.73743	0.32196	0.05188	27.6	13111	100
2025-3-13 10:6:18.126	WT901BLE68(490AABDC0D29)	-0.224	-1.204	-0.176	-21.057	-10.986	-75.623	-101.02	-1.69	1.38	-6.762	30.772	63.014	0.64072	-0.76758	0.00189	0.01407	26.9	13111	100
2025-3-13 10:6:18.189	WT901BLE68(E947F43FF2E9)	-0.071	1.101	-0.183	29.602	-57.495	76.050	105.78	9.17	31.40	0.980	-55.468	-18.424	0.59140	0.73743	0.32196	0.05188	27.6	13111	100
2025-3-13 10:6:18.240	WT901BLE68(490AABDC0D29)	-0.787	-1.608	-0.016	-50.354	92.896	-148.010	-104.69	-12.99	-0.62	-26.656	24.304	65.170	0.64072	-0.76758	0.00189	0.01407	26.9	13111	100
2025-3-13 10:6:18.279	WT901BLE68(E947F43FF2E9)	-0.009	1.012	-0.154	1.343	0.977	30.334	105.26	3.75	32.20	14.896	-63.994	-7.546	0.59140	0.73743	0.32196	0.05188	27.6	13111	100
2025-3-13 10:6:18.331	WT901BLE68(490AABDC0D29)	-0.087	-0.475	0.145	-1.526	-16.785	41.199	-104.65	-20.35	-7.00	-26.656	24.304	65.170	0.64072	-0.76758	0.00189	0.01407	26.9	13111	100
2025-3-13 10:6:18.400	WT901BLE68(E947F43FF2E9)	-0.027	0.987	-0.185	-8.179	7.324	22.644	104.40	0.56	32.34	14.896	-63.994	-7.546	0.59140	0.73743	0.32196	0.05188	27.6	13111	100
2025-3-13 10:6:18.451	WT901BLE68(490AABDC0D29)	0.730	-0.828	-0.002	54.016	-14.221	207.092	-99.67	-4.43	-11.22	-26.656	24.304	65.170	0.67496	-0.72360	0.14380	0.00732	26.9	13111	100
2025-3-13 10:6:18.490	WT901BLE68(E947F43FF2E9)	0.071	0.961	-0.179	-5.920	7.935	34.180	103.30	-2.20	32.40	14.896	-63.994	-7.546	0.59125	0.75647	0.20419	0.19077	27.6	13111	100
2025-3-13 10:6:18.527	WT901BLE68(490AABDC0D29)	-0.282	-1.727	-0.164	71.228	79.102	246.582	-93.39	20.37	-13.88	-26.656	24.304	65.170	0.67496	-0.72360	0.14380	0.00732	26.9	13111	100
2025-3-13 10:6:18.610	WT901BLE68(E947F43FF2E9)	-0.121	1.040	-0.131	-16.052	3.235	48.889	102.19	-6.04	31.67	4.116	-62.524	-10.584	0.59125	0.75647	0.20419	0.19077	27.6	13111	100
2025-3-13 10:6:18.633	WT901BLE68(490AABDC0D29)	0.065	-1.567	0.622	-28.442	-53.650	-66.833	-93.63	24.78	-19.55	-5.292	36.456	56.350	0.67496	-0.72360	0.14380	0.00732	26.9	13111	100
2025-3-13 10:6:18.668	WT901BLE68(E947F43FF2E9)	-0.188	1.620	-0.196	-45.959	22.583	95.215	99.44	-12.26	30.84	4.116	-62.524	-10.584	0.59125	0.75647	0.20419	0.19077	27.6	13111	100
2025-3-13 10:6:18.728	WT901BLE68(490AABDC0D29)	-0.173	-0.941	-0.128	-26.306	15.625	-46.814	-95.67	16.76	-14.30	-5.292	36.456	56.350	0.67496	-0.72360	0.14380	0.00732	26.9	13111	100
2025-3-13 10:6:18.789	WT901BLE68(E947F43FF2E9)	-0.286	0.853	-0.368	-61.401	112.122	131.470	93.32	-24.74	32.74	4.116	-62.524	-10.584	0.59125	0.75647	0.20419	0.19077	27.6	13111	100
2025-3-13 10:6:18.842	WT901BLE68(490AABDC0D29)	-0.108	-1.000	-0.122	-18.311	-0.244	-36.499	-97.66	12.63	-14.84	-5.292	36.456	56.350	0.65497	-0.73877	0.15778	-0.01550	26.9	13111	100
2025-3-13 10:6:18.878	WT901BLE68(E947F43FF2E9)	-0.067	0.425	-0.237	7.263	-46.875	-36.255	89.75	-29.76	34.04	4.116	-62.524	-10.584	0.60236	0.70682	0.02527	0.36990	27.6	13111	100
2025-3-13 10:6:18.932	WT901BLE68(490AABDC0D29)	-0.055	-0.988	-0.140	-7.385	6.531	-33.447	-98.67	8.72	-15.06	-5.292	36.456	56.350	0.65497	-0.73877	0.15778	-0.01550	26.9	13111	100
2025-3-13 10:6:19.0	WT901BLE68(E947F43FF2E9)	0.022	0.803	-0.042	66.589	-3.540	-183.350	96.77	-16.85	27.73	4.116	-62.524	-10.584	0.60236	0.70682	0.02527	0.36990	27.6	13111	100
2025-3-13 10:6:19.53	WT901BLE68(490AABDC0D29)	-0.020	-0.977	-0.130	-0.183	2.869	-32.898	-98.87	5.43	-15.23	-16.562	34.888	58.408	0.65497	-0.73877	0.15778	-0.01550	26.9	13111	100
2025-3-13 10:6:19.88	WT901BLE68(E947F43FF2E9)	1.388	1.341	0.086	80.017	-17.151	-224.304	104.00	4.46	29.67	11.662	-65.268	-11.564	0.60236	0.70682	0.02527	0.36990	27.6	13111	100
2025-3-13 10:6:19.113	WT901BLE68(490AABDC0D29)	0.055	-0.987	-0.131	-0.305	5.920	-44.495	-98.79	1.75	-15.29	-16.562	34.888	58.408	0.65497	-0.73877	0.15778	-0.01550	26.9	13111	100
2025-3-13 10:6:19.209	WT901BLE68(E947F43FF2E9)	2.136	1.367	0.168	7.019	-163.452	-53.650	108.18	23.11	27.29	11.662	-65.268	-11.564	0.60236	0.70682	0.02527	0.36990	27.6	13111	100
2025-3-13 10:6:19.232	WT901BLE68(490AABDC0D29)	-0.045	-1.012	-0.111	-6.653	-4.272	-74.219	-98.94	-3.70	-14.97	-16.562	34.888	58.408	0.62952	-0.76221	0.04065	-0.14478	26.9	13111	100
2025-3-13 10:6:19.269	WT901BLE68(E947F43FF2E9)	-0.068	0.802	0.182	16.479	-64.331	141.663	103.93	17.08	21.00	11.662	-65.268	-11.564	0.62048	0.75592	0.20856	-0.00006	27.6	13111	100
2025-3-13 10:6:19.331	WT901BLE68(490AABDC0D29)	0.111	-1.698	-0.127	-47.119	74.951	-135.193	-100.43	-13.35	-15.33	-16.562	34.888	58.408	0.62952	-0.76221	0.04065	-0.14478	26.9	13111	100
2025-3-13 10:6:19.389	WT901BLE68(E947F43FF2E9)	-0.009	0.952	0.006	14.771	-9.583	50.110	104.72	8.38	12.69	11.662	-65.268	-11.564	0.62048	0.75592	0.20856	-0.00006	27.6	13111	100
2025-3-13 10:6:19.443	WT901BLE68(490AABDC0D29)	-0.124	-0.721	-0.355	-8.911	75.745	-86.975	-98.55	-26.92	-26.47	-43.512	21.658	53.214	0.62952	-0.76221	0.04065	-0.14478	26.9	13111	100
2025-3-13 10:6:19.478	WT901BLE68(E947F43FF2E9)	-0.021	1.000	-0.218	8.911	0.488	26.306	105.46	4.93	9.70	5.880	-71.442	-6.566	0.62048	0.75592	0.20856	-0.00006	27.6	13111	100
2025-3-13 10:6:19.531	WT901BLE68(490AABDC0D29)	-0.032	-0.580	-0.001	10.681	-57.800	67.444	-99.84	-25.57	-24.33	-43.512	21.658	53.214	0.62952	-0.76221	0.04065	-0.14478	26.9	13111	100
2025-3-13 10:6:19.599	WT901BLE68(E947F43FF2E9)	0.002	0.972	-0.198	-2.747	8.179	24.536	105.08	2.68	8.93	5.880	-71.442	-6.566	0.62048	0.75592	0.20856	-0.00006	27.6	13111	100
2025-3-13 10:6:19.653	WT901BLE68(490AABDC0D29)	0.109	-0.955	0.220	33.264	-46.387	200.562	-98.61	-9.49	-22.04	-43.512	21.658	53.214	0.66193	-0.72293	0.16211	-0.11325	26.9	13111	100
2025-3-13 10:6:19.688	WT901BLE68(E947F43FF2E9)	0.101	0.979	-0.204	-7.080	8.728	35.828	104.36	-0.40	8.52	5.880	-71.442	-6.566	0.61145	0.78772	0.05533	0.04932	27.6	13111	100
2025-3-13 10:6:19.742	WT901BLE68(490AABDC0D29)	1.145	-1.554	0.292	61.707	33.508	243.103	-92.89	13.51	-24.42	-43.512	21.658	53.214	0.66193	-0.72293	0.16211	-0.11325	26.9	13111	100
2025-3-13 10:6:19.810	WT901BLE68(E947F43FF2E9)	0.122	0.979	-0.195	-15.503	1.038	37.231	103.12	-4.02	7.51	5.880	-71.442	-6.566	0.61145	0.78772	0.05533	0.04932	27.6	13111	100
2025-3-13 10:6:19.861	WT901BLE68(490AABDC0D29)	-0.835	-1.154	-0.421	41.138	-35.095	100.220	-84.72	31.93	-20.97	1.960	44.100	44.492	0.66193	-0.72293	0.16211	-0.11325	26.9	13111	100
2025-3-13 10:6:19.898	WT901BLE68(E947F43FF2E9)	-0.030	1.055	-0.172	-28.503	11.230	47.180	100.78	-7.98	6.97	-5.978	-67.718	-9.408	0.61145	0.78772	0.05533	0.04932	27.6	13111	100
2025-3-13 10:6:19.932	WT901BLE68(490AABDC0D29)	0.027	-0.940	0.806	-7.996	98.572	9.155	-86.46	26.31	-21.46	1.960	44.100	44.492	0.66193	-0.72293	0.16211	-0.11325	26.9	13111	100
2025-3-13 10:6:20.29	WT901BLE68(E947F43FF2E9)	0.218	1.604	-0.253	-56.946	39.978	109.863	95.99	-15.60	7.28	-5.978	-67.718	-9.408	0.61145	0.78772	0.05533	0.04932	27.6	13111	100
2025-3-13 10:6:20.43	WT901BLE68(490AABDC0D29)	-0.220	-0.898	-0.014	-44.250	-2.502	-39.856	-91.56	18.64	-20.96	1.960	44.100	44.492	0.68057	-0.69601	0.22662	-0.03030	26.9	13111	100
2025-3-13 10:6:20.78	WT901BLE68(E947F43FF2E9)	-0.011	0.573	-0.172	-71.350	96.680	86.060	87.29	-25.86	13.78	-5.978	-67.718	-9.408	0.68475	0.67969	-0.09125	0.24637	27.6	13111	100
2025-3-13 10:6:20.134	WT901BLE68(490AABDC0D29)	-0.222	-0.987	-0.066	-23.804	13.916	-32.410	-94.94	14.47	-21.91	1.960	44.100	44.492	0.68057	-0.69601	0.22662	-0.03030	26.9	13111	100
2025-3-13 10:6:20.199	WT901BLE68(E947F43FF2E9)	-0.040	0.543	-0.335	-1.587	-102.600	-57.922	88.98	-25.73	5.17	-5.978	-67.718	-9.408	0.68475	0.67969	-0.09125	0.24637	27.6	13111	100
2025-3-13 10:6:20.253	WT901BLE68(490AABDC0D29)	-0.115	-0.972	-0.079	-12.390	8.728	-33.813	-96.73	10.91	-22.62	-11.858	42.434	52.234	0.68057	-0.69601	0.22662	-0.03030	26.9	13111	100
2025-3-13 10:6:20.289	WT901BLE68(E947F43FF2E9)	-0.116	0.494	-0.049	73.608	-17.761	-161.255	95.77	-12.04	0.04	-10.584	-63.700	-15.484	0.68475	0.67969	-0.09125	0.24637	27.6	13111	100
2025-3-13 10:6:20.341	WT901BLE68(490AABDC0D29)	-0.064	-0.988	-0.108	-11.292	0.366	-37.292	-97.85	7.26	-22.14	-11.858	42.434	52.234	0.68057	-0.69601	0.22662	-0.03030	26.9	13111	100
2025-3-13 10:6:20.410	WT901BLE68(E947F43FF2E9)	0.689	1.447	0.117	82.581	-1.465	-202.759	104.38	7.20	1.87	-10.584	-63.700	-15.484	0.68475	0.67969	-0.09125	0.24637	27.6	13111	100
2025-3-13 10:6:20.462	WT901BLE68(490AABDC0D29)	-0.036	-0.973	-0.144	-9.583	0.732	-36.987	-98.68	3.65	-21.54	-11.858	42.434	52.234	0.63889	-0.74640	0.14819	-0.11240	26.9	13111	100
2025-3-13 10:6:20.498	WT901BLE68(E947F43FF2E9)	-2.011	1.326	0.205	26.978	-4.822	-132.080	110.79	23.09	9.66	-10.584	-63.700	-15.484	0.56653	0.79327	0.18973	-0.11673	27.6	13111	100
2025-3-13 10:6:20.534	WT901BLE68(490AABDC0D29)	-0.145	-0.996	-0.112	-10.193	3.296	-58.228	-99.43	-0.85	-21.29	-11.858	42.434	52.234	0.63889	-0.74640	0.14819	-0.11240	26.9	13111	100
2025-3-13 10:6:20.631	WT901BLE68(E947F43FF2E9)	0.161	1.763	-0.355	-50.781	-79.102	77.881	109.12	18.67	12.78	-10.584	-63.700	-15.484	0.56653	0.79327	0.18973	-0.11673	27.6	13111	100
2025-3-13 10:6:20.643	WT901BLE68(490AABDC0D29)	-0.510	-1.655	-0.037	-29.053	24.658	-121.094	-101.11	-9.91	-20.62	-34.202	32.438	54.096	0.63889	-0.74640	0.14819	-0.11240	26.9	13111	100
2025-3-13 10:6:20.678	WT901BLE68(E947F43FF2E9)	-0.062	1.038	-0.065	-41.138	44.434	53.284	107.82	8.71	8.14	14.896	-69.286	0.196	0.56653	0.79327	0.18973	-0.11673	27.6	13111	100
2025-3-13 10:6:20.735	WT901BLE68(490AABDC0D29)	-0.187	-0.344	-0.575	-4.761	44.861	-100.586	-100.92	-25.13	-26.80	-34.202	32.438	54.096	0.63889	-0.74640	0.14819	-0.11240	26.9	13111	100
2025-3-13 10:6:20.799	WT901BLE68(E947F43FF2E9)	-0.064	0.946	-0.183	12.939	-12.390	35.217	106.86	3.29	12.45	14.896	-69.286	0.196	0.56653	0.79327	0.18973	-0.11673	27.6	13111	100
2025-3-13 10:6:20.853	WT901BLE68(490AABDC0D29)	0.033	-0.632	-0.102	40.283	-43.884	109.558	-102.58	-21.71	-21.40	-34.202	32.438	54.096	0.62946	-0.74854	0.10162	-0.18182	26.9	13111	100
2025-3-13 10:6:20.890	WT901BLE68(E947F43FF2E9)	0.019	0.954	-0.179	3.357	-1.892	25.818	106.84	0.42	13.50	14.896	-69.286	0.196	0.59143	0.79770	0.09232	0.07263	27.6	13111	100
2025-3-13 10:6:20.940	WT901BLE68(490AABDC0D29)	0.053	-1.153	-0.049	68.604	-49.011	223.206	-96.51	-2.58	-22.62	-34.202	32.438	54.096	0.62946	-0.74854	0.10162	-0.18182	26.9	13111	100
2025-3-13 10:6:21.16	WT901BLE68(E947F43FF2E9)	0.120	0.991	-0.192	3.052	4.028	38.696	106.89	-2.67	13.33	14.896	-69.286	0.196	0.59143	0.79770	0.09232	0.07263	27.6	13111	100
2025-3-13 10:6:21.61	WT901BLE68(490AABDC0D29)	0.928	-1.475	-0.250	59.692	-51.147	229.370	-89.18	20.14	-18.23	1.078	37.142	47.726	0.62946	-0.74854	0.10162	-0.18182	26.9	13111	100
2025-3-13 10:6:21.98	WT901BLE68(E947F43FF2E9)	0.164	0.998	-0.225	-3.601	12.390	50.232	106.64	-7.02	13.04	1.764	-67.620	0.980	0.59143	0.79770	0.09232	0.07263	27.6	13111	100
2025-3-13 10:6:21.151	WT901BLE68(490AABDC0D29)	-1.654	-1.041	-0.327	-18.066	12.451	65.125	-84.77	34.55	-13.11	1.078	37.142	47.726	0.62946	-0.74854	0.10162	-0.18182	26.9	13111	100
2025-3-13 10:6:21.218	WT901BLE68(E947F43FF2E9)	0.115	1.163	-0.225	-13.611	18.738	72.083	105.60	-12.67	13.60	1.764	-67.620	0.980	0.59143	0.79770	0.09232	0.07263	27.6	13111	100
2025-3-13 10:6:21.271	WT901BLE68(490AABDC0D29)	-0.249	-0.907	1.273	-38.696	-62.256	27.344	-85.96	26.31	-3.12	1.078	37.142	47.726	0.70770	-0.68118	0.14810	0.11459	26.9	13111	100
2025-3-13 10:6:21.320	WT901BLE68(E947F43FF2E9)	0.670	1.603	-0.163	-38.086	45.776	123.169	103.31	-22.16	13.74	1.764	-67.620	0.980	0.58783	0.77338	-0.03745	0.23419	27.6	13111	100
2025-3-13 10:6:21.332	WT901BLE68(490AABDC0D29)	-0.189	-0.878	-0.055	-39.063	-11.658	-39.124	-89.91	18.93	-2.15	1.078	37.142	47.726	0.70770	-0.68118	0.14810	0.11459	26.9	13111	100
2025-3-13 10:6:21.430	WT901BLE68(E947F43FF2E9)	-0.608	0.910	-0.367	-44.312	59.937	129.395	96.37	-34.32	17.66	1.764	-67.620	0.980	0.58783	0.77338	-0.03745	0.23419	27.6	13111	100
2025-3-13 10:6:21.453	WT901BLE68(490AABDC0D29)	-0.167	-0.999	-0.018	-27.527	-14.038	-47.974	-92.51	13.70	-1.73	-5.978	37.044	54.978	0.70770	-0.68118	0.14810	0.11459	26.9	13111	100
2025-3-13 10:6:21.488	WT901BLE68(E947F43FF2E9)	-0.175	0.382	-0.034	-9.888	-5.188	-65.125	93.42	-37.83	16.75	-18.522	-51.156	-13.132	0.58783	0.77338	-0.03745	0.23419	27.6	13111	100
2025-3-13 10:6:21.541	WT901BLE68(490AABDC0D29)	-0.126	-0.983	-0.055	-15.259	-6.653	-37.720	-94.24	9.33	-1.45	-5.978	37.044	54.978	0.70770	-0.68118	0.14810	0.11459	26.9	13111	100
2025-3-13 10:6:21.618	WT901BLE68(E947F43FF2E9)	-0.007	0.947	-0.009	72.327	8.545	-249.451	99.87	-19.86	12.34	-18.522	-51.156	-13.132	0.58783	0.77338	-0.03745	0.23419	27.6	13111	100
2025-3-13 10:6:21.663	WT901BLE68(490AABDC0D29)	-0.052	-0.977	-0.078	-12.451	-2.441	-41.077	-95.40	5.69	-1.26	-5.978	37.044	54.978	0.66711	-0.74442	0.02594	0.00485	26.9	13111	100
2025-3-13 10:6:21.698	WT901BLE68(E947F43FF2E9)	1.839	1.923	0.211	96.924	103.455	-328.918	107.26	8.92	22.60	-18.522	-51.156	-13.132	0.58884	0.77710	0.21655	0.04883	27.6	13111	100
2025-3-13 10:6:21.752	WT901BLE68(490AABDC0D29)	-0.184	-0.997	-0.087	-11.902	11.230	-49.988	-96.52	1.45	-2.12	-5.978	37.044	54.978	0.66711	-0.74442	0.02594	0.00485	26.9	13111	100
2025-3-13 10:6:21.819	WT901BLE68(E947F43FF2E9)	-0.752	1.182	0.337	-38.635	44.373	71.411	113.41	21.03	35.04	-18.522	-51.156	-13.132	0.58884	0.77710	0.21655	0.04883	27.6	13111	100
2025-3-13 10:6:21.872	WT901BLE68(490AABDC0D29)	-0.052	-1.254	-0.071	-24.353	9.766	-97.900	-97.97	-5.25	-3.21	-27.244	32.242	58.604	0.66711	-0.74442	0.02594	0.00485	26.9	13111	100
2025-3-13 10:6:21.908	WT901BLE68(E947F43FF2E9)	-0.021	1.134	-0.020	-28.809	21.667	90.820	109.59	12.32	32.35	25.480	-68.404	-2.156	0.58884	0.77710	0.21655	0.04883	27.6	13111	100
2025-3-13 10:6:21.932	WT901BLE68(490AABDC0D29)	-0.996	-1.622	-0.061	-33.264	104.858	-167.175	-100.21	-19.07	-8.07	-27.244	32.242	58.604	0.66711	-0.74442	0.02594	0.00485	26.9	13111	100
2025-3-13 10:6:22.30	WT901BLE68(E947F43FF2E9)	-0.011	0.968	-0.130	6.775	4.333	37.537	108.28	5.50	30.16	25.480	-68.404	-2.156	0.58884	0.77710	0.21655	0.04883	27.6	13111	100
2025-3-13 10:6:22.53	WT901BLE68(490AABDC0D29)	-0.200	-0.564	-0.139	-9.399	-75.439	-24.353	-100.33	-27.72	-10.84	-27.244	32.242	58.604	0.62216	-0.76166	-0.05383	-0.17255	26.9	13111	100
2025-3-13 10:6:22.88	WT901BLE68(E947F43FF2E9)	0.005	0.968	-0.242	-7.996	3.540	27.039	107.95	2.33	30.17	25.480	-68.404	-2.156	0.57291	0.77664	0.21970	0.14209	27.6	13111	100
2025-3-13 10:6:22.141	WT901BLE68(490AABDC0D29)	0.060	-0.823	0.063	49.011	26.917	174.438	-98.04	-13.88	-10.11	-27.244	32.242	58.604	0.62216	-0.76166	-0.05383	-0.17255	26.9	13111	100
2025-3-13 10:6:22.220	WT901BLE68(E947F43FF2E9)	0.098	0.990	-0.190	-10.010	3.296	40.771	106.49	-0.80	30.17	25.480	-68.404	-2.156	0.57291	0.77664	0.21970	0.14209	27.6	13111	100
2025-3-13 10:6:22.263	WT901BLE68(490AABDC0D29)	1.333	-1.324	-0.073	68.298	-6.592	247.620	-91.20	9.51	-12.53	2.352	37.828	52.234	0.62216	-0.76166	-0.05383	-0.17255	26.9	13111	100
2025-3-13 10:6:22.298	WT901BLE68(E947F43FF2E9)	0.165	0.994	-0.179	-10.986	7.263	45.410	105.10	-5.09	29.89	8.820	-68.992	-3.626	0.57291	0.77664	0.21970	0.14209	27.6	13111	100
2025-3-13 10:6:22.351	WT901BLE68(490AABDC0D29)	-0.582	-1.346	-0.369	9.460	-47.180	119.873	-85.44	30.88	-9.09	2.352	37.828	52.234	0.62216	-0.76166	-0.05383	-0.17255	26.9	13111	100
2025-3-13 10:6:22.421	WT901BLE68(E947F43FF2E9)	-0.004	1.050	-0.153	-23.743	10.803	59.387	103.07	-10.12	29.97	8.820	-68.992	-3.626	0.57291	0.77664	0.21970	0.14209	27.6	13111	100
2025-3-13 10:6:22.473	WT901BLE68(490AABDC0D29)	-0.150	-0.849	0.822	-35.034	-47.913	-1.953	-85.05	24.71	0.54	2.352	37.828	52.234	0.70221	-0.69485	0.09628	0.12115	26.9	13111	100
2025-3-13 10:6:22.510	WT901BLE68(E947F43FF2E9)	-0.014	1.666	-0.223	-32.288	33.630	109.741	99.72	-18.18	30.40	8.820	-68.992	-3.626	0.58090	0.74722	0.07300	0.31427	27.6	13111	100
2025-3-13 10:6:22.562	WT901BLE68(490AABDC0D29)	-0.167	-0.849	-0.063	-34.912	32.898	-51.758	-89.87	16.67	1.94	2.352	37.828	52.234	0.70221	-0.69485	0.09628	0.12115	26.9	13111	100
2025-3-13 10:6:22.629	WT901BLE68(E947F43FF2E9)	-0.264	0.889	-0.292	-69.275	140.320	113.708	91.07	-30.54	37.18	8.820	-68.992	-3.626	0.58090	0.74722	0.07300	0.31427	27.6	13111	100
2025-3-13 10:6:22.681	WT901BLE68(490AABDC0D29)	-0.096	-0.989	-0.109	-25.696	-6.531	-48.096	-93.12	12.01	0.53	0.882	34.986	57.918	0.70221	-0.69485	0.09628	0.12115	26.9	13111	100
2025-3-13 10:6:22.728	WT901BLE68(E947F43FF2E9)	-0.186	0.371	-0.189	6.165	-46.265	-41.931	88.36	-32.42	37.02	-7.448	-56.742	-15.778	0.58090	0.74722	0.07300	0.31427	27.6	13111	100
2025-3-13 10:6:22.742	WT901BLE68(490AABDC0D29)	-0.042	-0.985	-0.102	-13.000	-3.906	-46.631	-94.77	7.40	0.72	0.882	34.986	57.918	0.70221	-0.69485	0.09628	0.12115	26.9	13111	100
2025-3-13 10:6:22.840	WT901BLE68(E947F43FF2E9)	-0.026	0.845	-0.004	83.191	-7.446	-188.354	96.92	-17.71	30.64	-7.448	-56.742	-15.778	0.58090	0.74722	0.07300	0.31427	27.6	13111	100
2025-3-13 10:6:22.863	WT901BLE68(490AABDC0D29)	-0.012	-0.996	-0.102	-7.935	-2.686	-47.180	-95.52	2.98	1.20	0.882	34.986	57.918	0.66867	-0.74344	-0.00858	0.00320	26.9	13111	100
2025-3-13 10:6:22.898	WT901BLE68(E947F43FF2E9)	1.847	1.772	0.041	101.013	21.729	-288.757	106.25	7.58	34.60	-7.448	-56.742	-15.778	0.57690	0.74149	0.32953	0.09320	27.6	13111	100
2025-3-13 10:6:22.951	WT901BLE68(490AABDC0D29)	-0.022	-1.012	-0.115	-6.836	2.625	-53.894	-96.23	-1.61	0.87	0.882	34.986	57.918	0.66867	-0.74344	-0.00858	0.00320	26.9	13111	100
2025-3-13 10:6:23.25	WT901BLE68(E947F43FF2E9)	-0.494	1.253	0.348	-10.254	27.222	64.758	114.16	23.97	44.86	-7.448	-56.742	-15.778	0.57690	0.74149	0.32953	0.09320	27.6	13111	100
2025-3-13 10:6:23.70	WT901BLE68(490AABDC0D29)	-0.149	-1.296	-0.141	-16.663	7.813	-98.572	-97.17	-8.32	0.98	-18.424	33.026	59.780	0.66867	-0.74344	-0.00858	0.00320	26.9	13111	100
2025-3-13 10:6:23.108	WT901BLE68(E947F43FF2E9)	0.024	0.890	-0.064	10.864	-11.169	102.295	109.49	12.64	39.68	31.360	-55.174	-0.686	0.57690	0.74149	0.32953	0.09320	27.6	13111	100
2025-3-13 10:6:23.162	WT901BLE68(490AABDC0D29)	-0.739	-1.603	-0.077	-28.320	69.946	-175.781	-99.24	-21.90	-2.15	-18.424	33.026	59.780	0.66867	-0.74344	-0.00858	0.00320	26.9	13111	100
2025-3-13 10:6:23.227	WT901BLE68(E947F43FF2E9)	-0.024	1.039	-0.203	5.981	-2.747	47.241	109.19	4.21	37.90	31.360	-55.174	-0.686	0.57690	0.74149	0.32953	0.09320	27.6	13111	100
2025-3-13 10:6:23.283	WT901BLE68(490AABDC0D29)	-0.174	-0.555	-0.153	-0.793	-85.510	-25.574	-98.29	-31.25	-4.77	-18.424	33.026	59.780	0.64346	-0.74155	-0.10410	-0.15842	26.9	13111	100
2025-3-13 10:6:23.327	WT901BLE68(E947F43FF2E9)	0.002	0.954	-0.245	-10.071	7.874	29.602	108.51	-0.08	38.71	31.360	-55.174	-0.686	0.55084	0.76361	0.26541	0.20721	27.6	13111	100
2025-3-13 10:6:23.342	WT901BLE68(490AABDC0D29)	0.098	-0.692	0.062	39.795	-6.348	155.884	-97.01	-19.90	-3.37	-18.424	33.026	59.780	0.64346	-0.74155	-0.10410	-0.15842	26.9	13111	100
2025-3-13 10:6:23.439	WT901BLE68(E947F43FF2E9)	0.098	0.969	-0.220	-11.597	7.996	37.170	106.96	-3.41	40.07	31.360	-55.174	-0.686	0.55084	0.76361	0.26541	0.20721	27.6	13111	100
2025-3-13 10:6:23.464	WT901BLE68(490AABDC0D29)	0.390	-1.213	0.038	50.720	-36.682	242.981	-92.19	2.64	-2.88	-18.424	33.026	59.780	0.64346	-0.74155	-0.10410	-0.15842	26.9	13111	100
2025-3-13 10:6:23.498	WT901BLE68(E947F43FF2E9)	0.163	0.972	-0.190	-10.193	7.507	48.950	105.56	-7.61	40.73	19.306	-57.624	-2.058	0.55084	0.76361	0.26541	0.20721	27.6	13111	100
2025-3-13 10:6:23.550	WT901BLE68(490AABDC0D29)	0.978	-1.688	-0.023	60.608	-20.142	246.521	-85.46	27.20	-0.68	3.136	25.186	55.272	0.64346	-0.74155	-0.10410	-0.15842	26.9	13111	100
2025-3-13 10:6:23.625	WT901BLE68(E947F43FF2E9)	0.119	1.051	-0.167	-10.437	12.695	61.462	104.47	-12.78	41.37	19.306	-57.624	-2.058	0.55084	0.76361	0.26541	0.20721	27.6	13111	100
2025-3-13 10:6:23.673	WT901BLE68(490AABDC0D29)	-0.524	-1.027	-0.293	-54.871	-28.625	-116.394	-85.15	29.63	2.24	3.136	25.186	55.272	0.70129	-0.68448	0.09915	0.17249	26.9	13111	100
2025-3-13 10:6:23.708	WT901BLE68(E947F43FF2E9)	-0.288	1.494	-0.245	-25.513	19.470	104.065	102.72	-20.20	42.13	19.306	-57.624	-2.058	0.51923	0.75452	0.15448	0.37027	27.6	13111	100
2025-3-13 10:6:23.762	WT901BLE68(490AABDC0D29)	-0.177	-1.066	-0.382	-53.406	-2.258	-66.345	-88.39	20.42	6.61	3.136	25.186	55.272	0.70129	-0.68448	0.09915	0.17249	26.9	13111	100
2025-3-13 10:6:23.830	WT901BLE68(E947F43FF2E9)	-0.637	1.239	-0.494	-70.129	144.714	128.662	95.77	-32.98	46.05	19.306	-57.624	-2.058	0.51923	0.75452	0.15448	0.37027	27.6	13111	100
2025-3-13 10:6:23.883	WT901BLE68(490AABDC0D29)	-0.140	-0.997	-0.023	-27.893	12.817	-52.063	-92.35	13.21	7.31	1.862	23.716	57.820	0.70129	-0.68448	0.09915	0.17249	26.9	13111	100
2025-3-13 10:6:23.931	WT901BLE68(E947F43FF2E9)	-0.156	0.236	-0.058	-27.405	-19.165	-37.659	87.58	-39.17	50.48	-1.274	-50.372	-10.878	0.51923	0.75452	0.15448	0.37027	27.6	13111	100
2025-3-13 10:6:23.972	WT901BLE68(490AABDC0D29)	-0.100	-0.984	-0.090	-10.925	17.456	-38.635	-94.66	8.31	6.41	1.862	23.716	57.820	0.70129	-0.68448	0.09915	0.17249	26.9	13111	100
2025-3-13 10:6:24.38	WT901BLE68(E947F43FF2E9)	-0.082	0.760	-0.023	75.439	-1.770	-212.585	95.68	-24.03	42.60	-1.274	-50.372	-10.878	0.51923	0.75452	0.15448	0.37027	27.6	13111	100
2025-3-13 10:6:24.93	WT901BLE68(490AABDC0D29)	-0.041	-0.979	-0.103	-9.827	6.592	-46.387	-95.80	4.21	5.15	1.862	23.716	57.820	0.66516	-0.74554	-0.03174	0.02481	26.9	13111	100
2025-3-13 10:6:24.131	WT901BLE68(E947F43FF2E9)	11.000	1.638	0.248	95.764	17.517	-297.058	104.99	2.70	45.25	-1.274	-50.372	-10.878	0.56754	0.70660	0.40027	0.13525	27.6	13111	100
2025-3-13 10:6:24.152	WT901BLE68(490AABDC0D29)	-0.023	-1.007	-0.115	-7.080	1.404	-58.044	-96.56	-0.57	4.60	1.862	23.716	57.820	0.66516	-0.74554	-0.03174	0.02481	26.9	13111	100
2025-3-13 10:6:24.251	WT901BLE68(E947F43FF2E9)	-0.202	5.264	-0.740	-2.197	-68.970	-14.526	109.51	22.59	45.76	-1.274	-50.372	-10.878	0.56754	0.70660	0.40027	0.13525	27.6	13111	100
2025-3-13 10:6:24.272	WT901BLE68(490AABDC0D29)	-0.292	-1.370	-0.179	-13.733	7.141	-101.135	-97.36	-7.46	4.69	1.862	23.716	57.820	0.66516	-0.74554	-0.03174	0.02481	26.9	13111	100
2025-3-13 10:6:24.308	WT901BLE68(E947F43FF2E9)	-0.026	1.230	0.057	53.711	-15.625	101.379	107.55	9.85	42.73	20.090	-58.996	-2.450	0.56754	0.70660	0.40027	0.13525	27.6	13111	100
2025-3-13 10:6:24.362	WT901BLE68(490AABDC0D29)	-0.652	-1.655	-0.072	-22.888	104.919	-170.532	-98.98	-20.78	-0.48	-17.542	23.030	59.094	0.66516	-0.74554	-0.03174	0.02481	26.9	13111	100
2025-3-13 10:6:24.432	WT901BLE68(E947F43FF2E9)	-0.002	1.024	-0.199	11.719	15.686	37.903	108.98	1.63	41.96	20.090	-58.996	-2.450	0.56754	0.70660	0.40027	0.13525	27.6	13111	100
2025-3-13 10:6:24.483	WT901BLE68(490AABDC0D29)	-0.077	-0.543	-0.008	-35.645	-135.986	9.521	-101.43	-29.13	-2.78	-17.542	23.030	59.094	0.61984	-0.76590	-0.08527	-0.14767	26.9	13111	100
2025-3-13 10:6:24.518	WT901BLE68(E947F43FF2E9)	0.068	0.981	-0.194	-4.395	12.024	37.781	108.74	-3.00	43.15	20.090	-58.996	-2.450	0.53156	0.76163	0.27789	0.24506	27.6	13111	100
2025-3-13 10:6:24.571	WT901BLE68(490AABDC0D29)	0.114	-0.809	0.150	28.442	36.682	189.026	-100.31	-15.73	-5.06	-17.542	23.030	59.094	0.61984	-0.76590	-0.08527	-0.14767	26.9	13111	100
2025-3-13 10:6:24.640	WT901BLE68(E947F43FF2E9)	0.163	0.965	-0.213	-10.620	4.272	44.189	107.63	-7.20	43.04	20.090	-58.996	-2.450	0.53156	0.76163	0.27789	0.24506	27.6	13111	100
2025-3-13 10:6:24.693	WT901BLE68(490AABDC0D29)	0.912	-1.403	0.134	54.749	8.972	258.484	-94.65	8.04	-10.32	0.196	26.950	52.038	0.61984	-0.76590	-0.08527	-0.14767	26.9	13111	100
2025-3-13 10:6:24.736	WT901BLE68(E947F43FF2E9)	0.167	0.974	-0.184	-20.203	-0.122	46.570	105.78	-11.35	41.90	5.586	-59.682	-2.450	0.53156	0.76163	0.27789	0.24506	27.6	13111	100
2025-3-13 10:6:24.752	WT901BLE68(490AABDC0D29)	-9.802	-1.532	-0.202	54.626	-8.545	159.668	-88.84	29.89	-12.05	0.196	26.950	52.038	0.61984	-0.76590	-0.08527	-0.14767	26.9	13111	100
2025-3-13 10:6:24.849	WT901BLE68(E947F43FF2E9)	-0.033	1.120	-0.110	-28.015	8.911	57.861	103.26	-16.01	41.18	5.586	-59.682	-2.450	0.53156	0.76163	0.27789	0.24506	27.6	13111	100
2025-3-13 10:6:24.903	WT901BLE68(490AABDC0D29)	0.017	-4.556	4.487	-19.409	48.340	0.916	-89.15	25.80	-10.48	0.196	26.950	52.038	0.61984	-0.76590	-0.08527	-0.14767	26.9	13111	100
2025-3-13 10:6:24.910	WT901BLE68(E947F43FF2E9)	0.604	1.681	-0.308	-34.546	34.851	122.070	99.95	-24.60	40.41	5.586	-59.682	-2.450	0.52759	0.73145	0.09631	0.42102	27.6	13111	100
2025-3-13 10:6:24.962	WT901BLE68(490AABDC0D29)	-0.170	-0.926	-0.148	-39.246	14.282	-63.904	-92.72	18.70	-10.77	0.196	26.950	52.038	0.68890	-0.70041	0.17865	0.05313	26.9	13111	100
2025-3-13 10:6:25.33	WT901BLE68(E947F43FF2E9)	-0.184	0.484	-0.001	-64.575	148.438	96.497	88.40	-35.61	50.27	5.586	-59.682	-2.450	0.52759	0.73145	0.09631	0.42102	27.6	13111	100
2025-3-13 10:6:25.82	WT901BLE68(490AABDC0D29)	-0.153	-0.995	-0.127	-24.658	-2.625	-55.542	-95.88	13.28	-11.72	0.196	26.950	52.038	0.68890	-0.70041	0.17865	0.05313	26.9	13111	100
2025-3-13 10:6:25.118	WT901BLE68(E947F43FF2E9)	-0.071	0.529	-0.202	-1.282	-77.576	-85.754	89.41	-34.22	42.74	-4.508	-52.920	-14.112	0.52759	0.73145	0.09631	0.42102	27.6	13111	100
2025-3-13 10:6:25.171	WT901BLE68(490AABDC0D29)	-0.080	-0.959	-0.139	-16.113	-3.967	-46.753	-97.30	8.40	-11.20	-7.448	23.912	56.350	0.68890	-0.70041	0.17865	0.05313	26.9	13111	100
2025-3-13 10:6:25.240	WT901BLE68(E947F43FF2E9)	0.081	1.063	-0.094	69.824	-28.809	-207.458	97.42	-18.18	33.32	-4.508	-52.920	-14.112	0.52759	0.73145	0.09631	0.42102	27.6	13111	100
2025-3-13 10:6:25.291	WT901BLE68(490AABDC0D29)	-0.014	-0.978	-0.163	-11.841	2.930	-45.471	-98.45	4.09	-10.65	-7.448	23.912	56.350	0.64539	-0.75809	0.07144	-0.05960	26.9	13111	100
2025-3-13 10:6:25.329	WT901BLE68(E947F43FF2E9)	1.546	1.694	0.042	83.252	11.963	-251.404	104.80	5.84	35.88	-4.508	-52.920	-14.112	0.58295	0.73160	0.34006	0.09579	27.6	13111	100
2025-3-13 10:6:25.381	WT901BLE68(490AABDC0D29)	0.006	-0.991	-0.155	-7.263	4.822	-53.833	-99.29	-0.67	-10.66	-7.448	23.912	56.350	0.64539	-0.75809	0.07144	-0.05960	26.9	13111	100
2025-3-13 10:6:25.451	WT901BLE68(E947F43FF2E9)	0.134	1.095	0.107	21.057	-84.351	3.479	110.43	22.83	38.77	-4.508	-52.920	-14.112	0.58295	0.73160	0.34006	0.09579	27.6	13111	100
2025-3-13 10:6:25.501	WT901BLE68(490AABDC0D29)	-0.132	-1.065	-0.195	-19.409	3.784	-95.459	-100.52	-7.72	-9.92	-24.500	18.718	58.408	0.64539	-0.75809	0.07144	-0.05960	26.9	13111	100
2025-3-13 10:6:25.538	WT901BLE68(E947F43FF2E9)	0.165	0.659	-0.554	19.714	-24.353	131.714	106.11	14.27	32.95	14.602	-61.740	-4.508	0.58295	0.73160	0.34006	0.09579	27.6	13111	100
2025-3-13 10:6:25.563	WT901BLE68(490AABDC0D29)	-0.816	-1.549	-0.212	-42.053	94.238	-176.331	-103.73	-22.19	-11.82	-24.500	18.718	58.408	0.64539	-0.75809	0.07144	-0.05960	26.9	13111	100
2025-3-13 10:6:25.659	WT901BLE68(E947F43FF2E9)	0.039	1.035	-0.196	14.954	2.319	71.533	107.26	2.92	28.63	14.602	-61.740	-4.508	0.58295	0.73160	0.34006	0.09579	27.6	13111	100
2025-3-13 10:6:25.683	WT901BLE68(490AABDC0D29)	-0.086	-0.467	-0.054	-16.663	-89.111	5.859	-103.16	-32.25	-17.01	-24.500	18.718	58.408	0.64539	-0.75809	0.07144	-0.05960	26.9	13111	100
2025-3-13 10:6:25.720	WT901BLE68(E947F43FF2E9)	0.037	0.959	-0.222	-12.268	-4.944	27.222	106.41	-1.95	29.16	14.602	-61.740	-4.508	0.57996	0.77399	0.18365	0.17529	27.6	13111	100
2025-3-13 10:6:25.772	WT901BLE68(490AABDC0D29)	0.208	-0.834	0.296	20.264	15.991	209.229	-103.89	-18.05	-16.94	-24.500	18.718	58.408	0.58685	-0.78229	0.02704	-0.20679	26.9	13111	100
2025-3-13 10:6:25.840	WT901BLE68(E947F43FF2E9)	0.066	0.986	-0.173	-11.108	8.423	26.428	104.72	-4.47	29.38	14.602	-61.740	-4.508	0.57996	0.77399	0.18365	0.17529	27.6	13111	100
2025-3-13 10:6:25.892	WT901BLE68(490AABDC0D29)	1.407	-1.514	0.398	86.365	6.348	274.414	-97.11	7.11	-22.55	-24.500	18.718	58.408	0.58685	-0.78229	0.02704	-0.20679	26.9	13111	100
2025-3-13 10:6:25.930	WT901BLE68(E947F43FF2E9)	0.184	0.973	-0.178	-6.104	11.719	42.053	103.36	-7.82	29.28	0.588	-60.466	-5.586	0.57996	0.77399	0.18365	0.17529	27.6	13111	100
2025-3-13 10:6:25.983	WT901BLE68(490AABDC0D29)	0.630	-1.456	-0.732	71.228	-62.683	134.766	-85.92	29.48	-20.59	-4.214	31.752	52.724	0.58685	-0.78229	0.02704	-0.20679	26.9	13111	100
2025-3-13 10:6:26.51	WT901BLE68(E947F43FF2E9)	-0.040	1.169	-0.068	-29.907	0.793	61.218	101.61	-12.55	27.95	0.588	-60.466	-5.586	0.57996	0.77399	0.18365	0.17529	27.6	13111	100
2025-3-13 10:6:26.103	WT901BLE68(490AABDC0D29)	-0.207	-1.081	-0.100	-54.138	-49.072	-93.506	-85.69	24.74	-16.79	-4.214	31.752	52.724	0.70447	-0.68210	0.19504	0.01889	26.9	13111	100
2025-3-13 10:6:26.139	WT901BLE68(E947F43FF2E9)	0.496	1.470	-0.336	-68.054	13.367	111.877	96.67	-20.31	25.67	0.588	-60.466	-5.586	0.61447	0.72845	0.01645	0.30231	27.6	13111	100
2025-3-13 10:6:26.163	WT901BLE68(490AABDC0D29)	-0.182	-1.012	-0.019	-29.907	26.550	-32.471	-90.81	17.04	-14.75	-4.214	31.752	52.724	0.70447	-0.68210	0.19504	0.01889	26.9	13111	100
2025-3-13 10:6:26.261	WT901BLE68(E947F43FF2E9)	-0.099	0.653	-0.376	-43.457	65.308	109.009	88.08	-30.91	30.23	0.588	-60.466	-5.586	0.61447	0.72845	0.01645	0.30231	27.6	13111	100
2025-3-13 10:6:26.284	WT901BLE68(490AABDC0D29)	-0.140	-0.994	-0.101	-30.396	-0.488	-52.368	-94.45	12.17	-15.97	-4.214	31.752	52.724	0.70447	-0.68210	0.19504	0.01889	26.9	13111	100
2025-3-13 10:6:26.322	WT901BLE68(E947F43FF2E9)	-0.135	0.551	-0.238	32.715	-23.926	-77.393	92.24	-29.84	22.78	-6.468	-50.862	-15.680	0.61447	0.72845	0.01645	0.30231	27.6	13111	100
2025-3-13 10:6:26.370	WT901BLE68(490AABDC0D29)	-0.058	-0.979	-0.108	-15.442	0.793	-41.565	-96.36	7.27	-15.76	-12.642	28.714	57.820	0.70447	-0.68210	0.19504	0.01889	26.9	13111	100
2025-3-13 10:6:26.440	WT901BLE68(E947F43FF2E9)	0.125	1.143	0.017	105.225	10.681	-201.965	99.92	-13.18	23.13	-6.468	-50.862	-15.680	0.61447	0.72845	0.01645	0.30231	27.6	13111	100
2025-3-13 10:6:26.492	WT901BLE68(490AABDC0D29)	0.001	-0.982	-0.112	-7.813	-1.221	-40.649	-97.20	3.39	-15.47	-12.642	28.714	57.820	0.70447	-0.68210	0.19504	0.01889	26.9	13111	100
2025-3-13 10:6:26.530	WT901BLE68(E947F43FF2E9)	1.353	1.664	0.137	105.591	41.504	-243.103	110.02	9.28	30.10	-6.468	-50.862	-15.680	0.55252	0.76959	0.31418	0.06046	27.6	13111	100
2025-3-13 10:6:26.581	WT901BLE68(490AABDC0D29)	0.111	-0.996	-0.111	-6.042	1.465	-52.673	-97.81	-1.03	-15.16	-12.642	28.714	57.820	0.64978	-0.74844	0.09039	-0.09659	26.9	13111	100
2025-3-13 10:6:26.651	WT901BLE68(E947F43FF2E9)	-0.175	1.124	0.424	8.362	-23.560	23.621	116.16	19.14	39.96	-6.468	-50.862	-15.680	0.55252	0.76959	0.31418	0.06046	27.6	13111	100
2025-3-13 10:6:26.703	WT901BLE68(490AABDC0D29)	-0.119	-1.388	-0.134	-10.864	-8.484	-91.492	-98.79	-7.57	-14.13	-12.642	28.714	57.820	0.64978	-0.74844	0.09039	-0.09659	26.9	13111	100
2025-3-13 10:6:26.738	WT901BLE68(E947F43FF2E9)	-0.021	0.831	-0.163	35.950	-57.129	110.291	111.21	9.03	33.56	16.758	-64.190	-4.508	0.55252	0.76959	0.31418	0.06046	27.6	13111	100
2025-3-13 10:6:26.792	WT901BLE68(490AABDC0D29)	-0.321	-1.438	-0.096	-43.518	72.144	-155.945	-101.46	-20.00	-15.84	-31.752	21.070	59.486	0.64978	-0.74844	0.09039	-0.09659	26.9	13111	100
2025-3-13 10:6:26.861	WT901BLE68(E947F43FF2E9)	0.052	1.069	-0.141	17.029	-19.104	51.697	110.32	1.92	31.85	16.758	-64.190	-4.508	0.55252	0.76959	0.31418	0.06046	27.6	13111	100
2025-3-13 10:6:26.924	WT901BLE68(490AABDC0D29)	-0.138	-0.772	-0.094	0.427	-64.209	-42.786	-100.20	-29.51	-18.86	-31.752	21.070	59.486	0.61990	-0.75787	-0.00488	-0.20300	26.9	13111	100
2025-3-13 10:6:26.949	WT901BLE68(E947F43FF2E9)	0.020	0.933	-0.243	-5.249	13.611	27.161	110.02	-2.13	31.56	16.758	-64.190	-4.508	0.54822	0.78958	0.20697	0.18185	27.6	13111	100
2025-3-13 10:6:26.973	WT901BLE68(490AABDC0D29)	0.024	-0.801	0.048	57.068	-8.423	149.414	-98.68	-17.45	-15.05	-31.752	21.070	59.486	0.61990	-0.75787	-0.00488	-0.20300	26.9	13111	100
2025-3-13 10:6:27.71	WT901BLE68(E947F43FF2E9)	0.134	0.953	-0.256	-9.033	12.695	32.837	108.75	-5.19	31.87	16.758	-64.190	-4.508	0.54822	0.78958	0.20697	0.18185	27.6	13111	100
2025-3-13 10:6:27.93	WT901BLE68(490AABDC0D29)	0.514	-1.208	-0.083	80.444	-85.327	222.900	-91.20	3.88	-12.51	-31.752	21.070	59.486	0.61990	-0.75787	-0.00488	-0.20300	26.9	13111	100
2025-3-13 10:6:27.128	WT901BLE68(E947F43FF2E9)	0.164	0.980	-0.218	-2.136	11.047	44.678	108.05	-9.16	31.33	3.136	-62.720	-5.488	0.54822	0.78958	0.20697	0.18185	27.6	13111	100
2025-3-13 10:6:27.181	WT901BLE68(490AABDC0D29)	-0.783	-1.462	-0.471	37.292	-37.903	196.533	-82.59	26.09	-4.17	-1.862	34.790	53.606	0.61990	-0.75787	-0.00488	-0.20300	26.9	13111	100
2025-3-13 10:6:27.250	WT901BLE68(E947F43FF2E9)	0.111	1.079	-0.201	-12.146	17.090	56.458	107.05	-13.95	30.83	3.136	-62.720	-5.488	0.54822	0.78958	0.20697	0.18185	27.6	13111	100
2025-3-13 10:6:27.301	WT901BLE68(490AABDC0D29)	-0.245	-1.233	0.600	-71.838	-118.103	-116.455	-84.79	27.66	-1.52	-1.862	34.790	53.606	0.61990	-0.75787	-0.00488	-0.20300	26.9	13111	100
2025-3-13 10:6:27.339	WT901BLE68(E947F43FF2E9)	0.472	1.563	-0.492	-22.156	68.542	130.615	104.99	-22.63	30.45	3.136	-62.720	-5.488	0.52792	0.77328	0.06509	0.34491	27.6	13111	100
2025-3-13 10:6:27.391	WT901BLE68(490AABDC0D29)	-0.144	-1.034	0.060	-76.660	-49.011	-78.247	-89.19	17.63	6.51	-1.862	34.790	53.606	0.69296	-0.70355	0.06000	0.14536	26.9	13111	100
2025-3-13 10:6:27.461	WT901BLE68(E947F43FF2E9)	-0.473	0.406	-0.263	-63.416	123.108	111.389	94.30	-36.52	39.05	3.136	-62.720	-5.488	0.52792	0.77328	0.06509	0.34491	27.6	13111	100
2025-3-13 10:6:27.513	WT901BLE68(490AABDC0D29)	-0.106	-1.002	-0.066	-30.701	-4.639	-57.068	-93.58	10.35	7.50	-2.156	31.948	59.976	0.69296	-0.70355	0.06000	0.14536	26.9	13111	100
2025-3-13 10:6:27.549	WT901BLE68(E947F43FF2E9)	-0.217	0.526	-0.113	40.161	-7.080	-125.000	92.81	-35.08	37.83	-6.566	-53.018	-17.052	0.52792	0.77328	0.06509	0.34491	27.6	13111	100
2025-3-13 10:6:27.573	WT901BLE68(490AABDC0D29)	-0.070	-0.995	-0.081	-16.479	-5.676	-40.161	-95.50	5.50	7.90	-2.156	31.948	59.976	0.69296	-0.70355	0.06000	0.14536	26.9	13111	100
2025-3-13 10:6:27.671	WT901BLE68(E947F43FF2E9)	1.265	1.244	0.131	128.967	33.875	-283.325	102.32	-13.35	37.03	-6.566	-53.018	-17.052	0.52792	0.77328	0.06509	0.34491	27.6	13111	100
2025-3-13 10:6:27.693	WT901BLE68(490AABDC0D29)	0.097	-0.983	-0.110	-10.132	2.808	-50.110	-96.71	1.15	7.83	-2.156	31.948	59.976	0.69296	-0.70355	0.06000	0.14536	26.9	13111	100
2025-3-13 10:6:27.728	WT901BLE68(E947F43FF2E9)	-0.387	2.451	0.707	72.815	43.457	-256.958	114.49	15.23	50.38	-6.566	-53.018	-17.052	0.52264	0.69330	0.48163	0.11874	27.6	13111	100
2025-3-13 10:6:27.785	WT901BLE68(490AABDC0D29)	-0.091	-1.004	-0.070	-14.221	-8.850	-86.304	-97.71	-5.23	7.95	-2.156	31.948	59.976	0.65799	-0.74838	-0.08212	0.01129	26.9	13111	100
2025-3-13 10:6:27.847	WT901BLE68(E947F43FF2E9)	-0.118	0.976	-0.043	-43.213	-22.278	80.444	113.39	12.97	57.01	-6.566	-53.018	-17.052	0.52264	0.69330	0.48163	0.11874	27.6	13111	100
2025-3-13 10:6:27.903	WT901BLE68(490AABDC0D29)	0.000	-1.854	-0.009	-52.979	34.729	-171.692	-100.34	-16.91	8.37	-2.156	31.948	59.976	0.65799	-0.74838	-0.08212	0.01129	26.9	13111	100
2025-3-13 10:6:27.938	WT901BLE68(E947F43FF2E9)	0.016	0.846	-0.181	4.272	5.859	49.011	111.83	2.64	52.06	21.560	-64.288	-1.764	0.52264	0.69330	0.48163	0.11874	27.6	13111	100
2025-3-13 10:6:27.991	WT901BLE68(490AABDC0D29)	-0.104	-0.677	-0.416	-6.165	-22.095	-83.496	-100.12	-31.22	3.31	-29.596	24.990	61.642	0.65799	-0.74838	-0.08212	0.01129	26.9	13111	100
2025-3-13 10:6:28.59	WT901BLE68(E947F43FF2E9)	0.017	0.965	-0.260	-0.732	2.625	32.837	111.27	-2.04	52.34	21.560	-64.288	-1.764	0.52264	0.69330	0.48163	0.11874	27.6	13111	100
2025-3-13 10:6:28.113	WT901BLE68(490AABDC0D29)	0.128	-0.665	-0.072	43.762	-34.485	103.516	-101.25	-24.35	9.14	-29.596	24.990	61.642	0.65799	-0.74838	-0.08212	0.01129	26.9	13111	100
2025-3-13 10:6:28.149	WT901BLE68(E947F43FF2E9)	0.106	0.961	-0.242	-4.272	12.268	32.104	110.22	-5.18	52.69	21.560	-64.288	-1.764	0.49289	0.74640	0.33380	0.29736	27.6	13111	100
2025-3-13 10:6:28.201	WT901BLE68(490AABDC0D29)	0.114	-1.011	-0.145	72.449	-64.636	214.539	-95.49	-5.30	10.06	-29.596	24.990	61.642	0.67734	-0.72986	-0.07724	0.04959	26.9	13111	100
2025-3-13 10:6:28.270	WT901BLE68(E947F43FF2E9)	0.173	0.983	-0.253	-6.287	36.987	35.767	109.21	-9.00	53.54	21.560	-64.288	-1.764	0.49289	0.74640	0.33380	0.29736	27.6	13111	100
2025-3-13 10:6:28.328	WT901BLE68(490AABDC0D29)	1.697	-1.492	-0.120	68.604	-7.324	252.563	-88.58	18.48	11.25	-29.596	24.990	61.642	0.67734	-0.72986	-0.07724	0.04959	26.9	13111	100
2025-3-13 10:6:28.359	WT901BLE68(E947F43FF2E9)	0.191	1.040	-0.178	-14.404	17.700	49.072	107.69	-13.54	54.64	10.584	-64.386	-3.332	0.49289	0.74640	0.33380	0.29736	27.6	13111	100
2025-3-13 10:6:28.383	WT901BLE68(490AABDC0D29)	0.685	-1.106	-0.637	-4.150	-18.494	57.800	-84.12	33.77	14.17	14.014	30.184	52.332	0.67734	-0.72986	-0.07724	0.04959	26.9	13111	100
2025-3-13 10:6:28.481	WT901BLE68(E947F43FF2E9)	-0.108	1.328	-0.209	-37.964	7.690	87.463	104.84	-19.69	53.65	10.584	-64.386	-3.332	0.49289	0.74640	0.33380	0.29736	27.6	13111	100
2025-3-13 10:6:28.503	WT901BLE68(490AABDC0D29)	-0.188	-1.285	-0.699	-55.359	-28.564	-119.324	-86.58	24.86	17.35	14.014	30.184	52.332	0.67734	-0.72986	-0.07724	0.04959	26.9	13111	100
2025-3-13 10:6:28.538	WT901BLE68(E947F43FF2E9)	-0.214	1.330	-0.380	-30.762	95.886	111.938	100.16	-29.42	54.98	10.584	-64.386	-3.332	0.44577	0.70624	0.17532	0.52121	27.6	13111	100
2025-3-13 10:6:28.591	WT901BLE68(490AABDC0D29)	-0.138	-1.065	0.021	-25.269	14.709	-49.866	-89.46	18.26	18.74	14.014	30.184	52.332	0.67361	-0.70480	-0.00287	0.22217	26.9	13111	100
2025-3-13 10:6:28.659	WT901BLE68(E947F43FF2E9)	-0.379	0.425	-0.171	-33.264	50.415	44.861	91.05	-38.94	62.86	10.584	-64.386	-3.332	0.44577	0.70624	0.17532	0.52121	27.6	13111	100
2025-3-13 10:6:28.713	WT901BLE68(490AABDC0D29)	-0.132	-1.007	-0.063	-23.804	-5.920	-46.997	-92.15	13.17	17.46	14.014	30.184	52.332	0.67361	-0.70480	-0.00287	0.22217	26.9	13111	100
2025-3-13 10:6:28.751	WT901BLE68(E947F43FF2E9)	-0.171	0.529	-0.067	58.716	-15.320	-128.723	93.10	-31.55	60.61	4.900	-61.642	-11.760	0.44577	0.70624	0.17532	0.52121	27.6	13111	100
2025-3-13 10:6:28.801	WT901BLE68(490AABDC0D29)	-0.045	-0.982	-0.074	-10.864	-2.686	-39.978	-93.54	8.85	16.06	2.450	32.928	57.036	0.67361	-0.70480	-0.00287	0.22217	26.9	13111	100
2025-3-13 10:6:28.869	WT901BLE68(E947F43FF2E9)	0.875	1.341	0.112	93.689	15.320	-264.648	103.24	-9.17	57.65	4.900	-61.642	-11.760	0.44577	0.70624	0.17532	0.52121	27.6	13111	100
2025-3-13 10:6:28.930	WT901BLE68(490AABDC0D29)	-0.017	-0.998	-0.077	-6.165	8.118	-44.800	-94.28	4.69	14.88	2.450	32.928	57.036	0.67361	-0.70480	-0.00287	0.22217	26.9	13111	100
2025-3-13 10:6:28.961	WT901BLE68(E947F43FF2E9)	-1.830	2.034	0.408	84.778	-24.475	-238.037	112.60	17.31	67.87	4.900	-61.642	-11.760	0.53583	0.63446	0.52023	0.19907	27.6	13111	100
2025-3-13 10:6:28.982	WT901BLE68(490AABDC0D29)	-0.054	-1.004	-0.039	-9.766	-2.014	-76.599	-94.84	-0.80	13.53	2.450	32.928	57.036	0.67236	-0.73056	-0.09991	0.06424	26.9	13111	100
2025-3-13 10:6:29.80	WT901BLE68(E947F43FF2E9)	0.035	1.594	-0.252	-72.815	-54.443	78.796	108.42	14.66	64.12	4.900	-61.642	-11.760	0.53583	0.63446	0.52023	0.19907	27.6	13111	100
2025-3-13 10:6:29.103	WT901BLE68(490AABDC0D29)	-0.310	-1.722	0.033	-35.278	33.386	-150.635	-96.34	-11.26	12.25	2.450	32.928	57.036	0.67236	-0.73056	-0.09991	0.06424	26.9	13111	100
2025-3-13 10:6:29.138	WT901BLE68(E947F43FF2E9)	-0.022	0.981	-0.070	9.644	-4.272	79.773	108.20	3.03	60.18	25.872	-65.072	-1.666	0.53583	0.63446	0.52023	0.19907	27.6	13111	100
2025-3-13 10:6:29.193	WT901BLE68(490AABDC0D29)	-0.130	-0.667	-0.297	-18.066	17.273	-113.220	-96.27	-27.00	6.04	-27.048	29.204	58.212	0.67236	-0.73056	-0.09991	0.06424	26.9	13111	100
2025-3-13 10:6:29.261	WT901BLE68(E947F43FF2E9)	-0.027	0.960	-0.201	-9.216	-0.732	30.640	106.97	-1.63	60.18	25.872	-65.072	-1.666	0.53583	0.63446	0.52023	0.19907	27.6	13111	100
2025-3-13 10:6:29.316	WT901BLE68(490AABDC0D29)	0.041	-0.672	0.169	21.545	27.954	114.258	-99.52	-23.47	10.33	-27.048	29.204	58.212	0.67236	-0.73056	-0.09991	0.06424	26.9	13111	100
2025-3-13 10:6:29.351	WT901BLE68(E947F43FF2E9)	0.070	0.972	-0.179	-14.771	6.287	27.893	105.13	-4.32	60.42	25.872	-65.072	-1.666	0.51038	0.69815	0.36517	0.34442	27.6	13111	100
2025-3-13 10:6:29.400	WT901BLE68(490AABDC0D29)	0.272	-1.087	0.183	60.120	-51.575	240.173	-92.97	-3.76	4.65	-27.048	29.204	58.212	0.69232	-0.72015	-0.03873	0.02151	26.9	13111	100
2025-3-13 10:6:29.469	WT901BLE68(E947F43FF2E9)	0.120	0.993	-0.158	-17.578	7.996	39.795	103.30	-7.66	59.88	25.872	-65.072	-1.666	0.51038	0.69815	0.36517	0.34442	27.6	13111	100
2025-3-13 10:6:29.523	WT901BLE68(490AABDC0D29)	0.773	-1.775	-0.257	63.782	-60.608	287.354	-84.21	22.70	9.06	-27.048	29.204	58.212	0.69232	-0.72015	-0.03873	0.02151	26.9	13111	100
2025-3-13 10:6:29.559	WT901BLE68(E947F43FF2E9)	0.059	1.049	-0.102	-22.217	10.925	53.955	101.24	-11.84	59.74	12.544	-65.366	-6.468	0.51038	0.69815	0.36517	0.34442	27.6	13111	100
2025-3-13 10:6:29.620	WT901BLE68(490AABDC0D29)	0.093	-1.139	-0.240	-62.500	-70.435	-114.685	-79.12	27.86	18.34	14.504	36.358	46.060	0.69232	-0.72015	-0.03873	0.02151	26.9	13111	100
2025-3-13 10:6:29.679	WT901BLE68(E947F43FF2E9)	-0.140	1.527	-0.136	-29.541	31.799	98.572	98.33	-18.40	59.58	12.544	-65.366	-6.468	0.51038	0.69815	0.36517	0.34442	27.6	13111	100
2025-3-13 10:6:29.733	WT901BLE68(490AABDC0D29)	-0.152	-1.271	-0.377	-71.411	-42.053	-77.209	-84.04	17.87	23.01	14.504	36.358	46.060	0.69232	-0.72015	-0.03873	0.02151	26.9	13111	100
2025-3-13 10:6:29.769	WT901BLE68(E947F43FF2E9)	-0.519	1.063	-0.376	-72.754	132.996	113.403	91.21	-30.10	63.53	12.544	-65.366	-6.468	0.47150	0.65396	0.18768	0.56094	27.6	13111	100
2025-3-13 10:6:29.793	WT901BLE68(490AABDC0D29)	-0.072	-1.014	-0.011	-33.630	4.272	-37.598	-88.84	12.15	23.60	14.504	36.358	46.060	0.67697	-0.70190	-0.07480	0.20813	26.9	13111	100
2025-3-13 10:6:29.890	WT901BLE68(E947F43FF2E9)	-0.195	0.326	-0.049	-7.080	-85.205	-10.254	83.21	-35.90	68.03	12.544	-65.366	-6.468	0.47150	0.65396	0.18768	0.56094	27.6	13111	100
2025-3-13 10:6:29.918	WT901BLE68(490AABDC0D29)	-0.053	-1.005	-0.067	-26.184	6.714	-34.607	-92.32	7.95	22.14	14.504	36.358	46.060	0.67697	-0.70190	-0.07480	0.20813	26.9	13111	100
2025-3-13 10:6:29.951	WT901BLE68(E947F43FF2E9)	-0.103	0.736	0.033	89.783	15.991	-166.260	94.38	-27.04	56.24	4.312	-66.346	-11.074	0.47150	0.65396	0.18768	0.56094	27.6	13111	100
2025-3-13 10:6:30.1	WT901BLE68(490AABDC0D29)	-0.035	-0.991	-0.079	-16.541	6.165	-36.011	-94.35	4.22	20.09	0.686	40.572	53.116	0.67697	-0.70190	-0.07480	0.20813	26.9	13111	100
2025-3-13 10:6:30.71	WT901BLE68(E947F43FF2E9)	0.934	1.482	0.137	115.417	52.856	-263.428	104.71	-5.10	57.62	4.312	-66.346	-11.074	0.47150	0.65396	0.18768	0.56094	27.6	13111	100
2025-3-13 10:6:30.122	WT901BLE68(490AABDC0D29)	0.094	-0.992	-0.120	-13.245	-0.610	-43.762	-95.70	0.26	18.87	0.686	40.572	53.116	0.67697	-0.70190	-0.07480	0.20813	26.9	13111	100
2025-3-13 10:6:30.160	WT901BLE68(E947F43FF2E9)	-0.032	1.611	0.576	34.424	4.333	-157.288	114.13	14.95	74.45	4.312	-66.346	-11.074	0.49908	0.61728	0.55325	0.25232	27.6	13111	100
2025-3-13 10:6:30.222	WT901BLE68(490AABDC0D29)	-0.121	-1.019	-0.087	-13.184	-3.235	-67.322	-96.80	-5.15	18.20	0.686	40.572	53.116	0.65967	-0.73288	-0.15332	0.06421	26.9	13111	100
2025-3-13 10:6:30.281	WT901BLE68(E947F43FF2E9)	-0.290	0.760	0.055	3.601	-44.678	85.205	110.00	11.27	71.19	4.312	-66.346	-11.074	0.49908	0.61728	0.55325	0.25232	27.6	13111	100
2025-3-13 10:6:30.332	WT901BLE68(490AABDC0D29)	0.138	-1.736	-0.042	-40.771	33.203	-137.573	-98.81	-15.14	16.70	0.686	40.572	53.116	0.65967	-0.73288	-0.15332	0.06421	26.9	13111	100
2025-3-13 10:6:30.369	WT901BLE68(E947F43FF2E9)	0.048	0.811	-0.108	-2.563	2.747	51.697	109.56	1.02	68.41	30.576	-78.498	14.798	0.49908	0.61728	0.55325	0.25232	27.6	13111	100
2025-3-13 10:6:30.393	WT901BLE68(490AABDC0D29)	-0.134	-0.600	-0.525	-17.517	9.094	-98.999	-98.90	-30.05	10.25	-27.440	36.750	55.272	0.65967	-0.73288	-0.15332	0.06421	26.9	13111	100
2025-3-13 10:6:30.490	WT901BLE68(E947F43FF2E9)	0.046	0.976	-0.261	-2.502	-7.935	44.067	109.29	-4.00	67.87	30.576	-78.498	14.798	0.49908	0.61728	0.55325	0.25232	27.6	13111	100
2025-3-13 10:6:30.520	WT901BLE68(490AABDC0D29)	0.165	-0.563	-0.052	33.081	-31.677	92.529	-101.42	-27.19	14.78	-27.440	36.750	55.272	0.65967	-0.73288	-0.15332	0.06421	26.9	13111	100
2025-3-13 10:6:30.549	WT901BLE68(E947F43FF2E9)	0.116	0.946	-0.243	-5.188	12.939	32.898	108.29	-7.44	68.59	30.576	-78.498	14.798	0.44656	0.68988	0.41879	0.38617	27.6	13111	100
2025-3-13 10:6:30.603	WT901BLE68(490AABDC0D29)	0.157	-1.045	-0.062	64.697	-50.781	209.839	-96.37	-9.64	13.96	-27.440	36.750	55.272	0.67566	-0.72620	-0.10873	0.06485	26.9	13111	100
2025-3-13 10:6:30.671	WT901BLE68(E947F43FF2E9)	0.172	0.958	-0.207	-5.371	13.428	43.518	107.41	-11.11	69.61	30.576	-78.498	14.798	0.44656	0.68988	0.41879	0.38617	27.6	13111	100
2025-3-13 10:6:30.721	WT901BLE68(490AABDC0D29)	1.113	-1.336	0.002	57.922	-39.246	216.003	-90.23	11.99	15.42	-27.440	36.750	55.272	0.67566	-0.72620	-0.10873	0.06485	26.9	13111	100
2025-3-13 10:6:30.760	WT901BLE68(E947F43FF2E9)	0.270	1.001	-0.229	-11.841	14.587	52.551	106.03	-15.66	70.43	13.132	-80.066	12.838	0.44656	0.68988	0.41879	0.38617	27.6	13111	100
2025-3-13 10:6:30.819	WT901BLE68(490AABDC0D29)	0.121	-1.098	-0.575	17.944	-82.031	67.566	-82.46	26.82	22.96	22.442	33.320	39.788	0.67566	-0.72620	-0.10873	0.06485	26.9	13111	100
2025-3-13 10:6:30.881	WT901BLE68(E947F43FF2E9)	0.069	1.218	-0.224	-26.611	18.494	76.477	104.03	-21.59	70.96	13.132	-80.066	12.838	0.44656	0.68988	0.41879	0.38617	27.6	13111	100
2025-3-13 10:6:30.933	WT901BLE68(490AABDC0D29)	-0.154	-1.271	-0.745	-75.012	-23.438	-105.347	-85.14	18.56	28.69	22.442	33.320	39.788	0.67566	-0.72620	-0.10873	0.06485	26.9	13111	100
2025-3-13 10:6:30.968	WT901BLE68(E947F43FF2E9)	-0.298	1.485	-0.371	-31.921	94.910	111.450	99.20	-30.63	74.32	13.132	-80.066	12.838	0.34598	0.65506	0.27304	0.61359	27.6	13111	100
2025-3-13 10:6:31.24	WT901BLE68(490AABDC0D29)	-0.051	-1.060	-0.048	-38.635	20.813	-43.884	-91.72	10.90	28.24	22.442	33.320	39.788	0.65366	-0.71234	-0.11444	0.22824	26.9	13111	100
2025-3-13 10:6:31.89	WT901BLE68(E947F43FF2E9)	-0.385	0.533	-0.270	-24.170	71.411	26.978	88.18	-39.31	85.03	13.132	-80.066	12.838	0.34598	0.65506	0.27304	0.61359	27.6	13111	100
2025-3-13 10:6:31.141	WT901BLE68(490AABDC0D29)	-0.037	-1.007	-0.107	-17.578	5.066	-41.138	-95.06	5.76	27.44	22.442	33.320	39.788	0.65366	-0.71234	-0.11444	0.22824	26.9	13111	100
2025-3-13 10:6:31.178	WT901BLE68(E947F43FF2E9)	-0.216	0.715	-0.170	75.562	-0.244	-170.959	95.01	-30.50	77.88	15.484	-73.206	4.998	0.34598	0.65506	0.27304	0.61359	27.6	13111	100
2025-3-13 10:6:31.201	WT901BLE68(490AABDC0D29)	0.010	-0.991	-0.114	-7.080	-0.183	-39.978	-96.25	1.74	26.63	8.134	39.396	47.334	0.65366	-0.71234	-0.11444	0.22824	26.9	13111	100
2025-3-13 10:6:31.298	WT901BLE68(E947F43FF2E9)	1.185	1.656	0.048	119.202	26.367	-282.043	105.45	-6.05	80.34	15.484	-73.206	4.998	0.34598	0.65506	0.27304	0.61359	27.6	13111	100
2025-3-13 10:6:31.322	WT901BLE68(490AABDC0D29)	0.025	-0.995	-0.116	-8.667	-7.263	-58.533	-97.03	-2.89	26.41	8.134	39.396	47.334	0.65366	-0.71234	-0.11444	0.22824	26.9	13111	100
2025-3-13 10:6:31.358	WT901BLE68(E947F43FF2E9)	-0.005	1.508	0.660	52.917	9.033	-157.166	114.50	14.82	95.91	15.484	-73.206	4.998	0.43991	0.52960	0.64182	0.33752	27.6	13111	100
2025-3-13 10:6:31.426	WT901BLE68(490AABDC0D29)	-0.083	-1.236	-0.099	-15.869	-20.996	-91.370	-98.15	-9.67	27.56	8.134	39.396	47.334	0.64716	-0.71490	-0.25558	0.06836	26.9	13111	100
2025-3-13 10:6:31.482	WT901BLE68(E947F43FF2E9)	0.141	0.453	-0.426	-23.926	-18.921	115.601	109.68	6.65	91.38	15.484	-73.206	4.998	0.43991	0.52960	0.64182	0.33752	27.6	13111	100
2025-3-13 10:6:31.530	WT901BLE68(490AABDC0D29)	-0.502	-1.553	-0.012	-40.833	91.125	-181.091	-101.11	-24.04	24.76	8.134	39.396	47.334	0.64716	-0.71490	-0.25558	0.06836	26.9	13111	100
2025-3-13 10:6:31.569	WT901BLE68(E947F43FF2E9)	-0.009	1.089	-0.279	21.240	-4.089	62.073	110.09	-1.46	85.78	35.182	-71.148	13.916	0.43991	0.52960	0.64182	0.33752	27.6	13111	100
2025-3-13 10:6:31.626	WT901BLE68(490AABDC0D29)	0.000	-0.554	-0.216	23.193	-118.408	-44.922	-99.26	-33.79	21.87	-23.520	39.592	51.352	0.64716	-0.71490	-0.25558	0.06836	26.9	13111	100
2025-3-13 10:6:31.691	WT901BLE68(E947F43FF2E9)	0.020	0.931	-0.294	-8.423	7.446	26.367	109.75	-5.10	85.80	35.182	-71.148	13.916	0.43991	0.52960	0.64182	0.33752	27.6	13111	100
2025-3-13 10:6:31.741	WT901BLE68(490AABDC0D29)	0.161	-0.629	-0.087	63.477	-62.866	110.352	-99.28	-23.80	29.27	-23.520	39.592	51.352	0.64716	-0.71490	-0.25558	0.06836	26.9	13111	100
2025-3-13 10:6:31.778	WT901BLE68(E947F43FF2E9)	0.117	0.966	-0.250	-8.118	10.437	43.518	108.48	-8.26	85.61	35.182	-71.148	13.916	0.37561	0.63141	0.50266	0.45547	27.6	13111	100
2025-3-13 10:6:31.803	WT901BLE68(490AABDC0D29)	0.117	-1.071	-0.237	83.984	-71.350	199.646	-92.52	-5.09	31.69	-23.520	39.592	51.352	0.67398	-0.68423	-0.20367	0.18973	26.9	13111	100
2025-3-13 10:6:31.898	WT901BLE68(E947F43FF2E9)	0.179	0.953	-0.303	-2.502	34.424	40.771	107.85	-12.47	85.60	35.182	-71.148	13.916	0.37561	0.63141	0.50266	0.45547	27.6	13111	100
2025-3-13 10:6:31.925	WT901BLE68(490AABDC0D29)	1.444	-1.474	-0.119	63.599	-4.578	240.112	-86.12	16.98	34.05	-23.520	39.592	51.352	0.67398	-0.68423	-0.20367	0.18973	26.9	13111	100
2025-3-13 10:6:31.959	WT901BLE68(E947F43FF2E9)	0.224	1.038	-0.236	-6.042	26.550	52.917	106.90	-17.04	86.92	17.444	-75.362	13.230	0.37561	0.63141	0.50266	0.45547	27.6	13111	100
2025-3-13 10:6:32.11	WT901BLE68(490AABDC0D29)	-0.962	-1.035	-0.570	-15.991	33.203	25.452	-83.39	30.05	35.80	41.160	36.848	36.358	0.67398	-0.68423	-0.20367	0.18973	26.9	13111	100
2025-3-13 10:6:32.80	WT901BLE68(E947F43FF2E9)	-0.064	1.407	-0.379	-14.221	22.400	93.018	105.79	-23.57	86.91	17.444	-75.362	13.230	0.37561	0.63141	0.50266	0.45547	27.6	13111	100
2025-3-13 10:6:32.133	WT901BLE68(490AABDC0D29)	-0.214	-0.934	-0.481	-51.086	-22.766	-51.086	-86.62	20.81	39.58	41.160	36.848	36.358	0.67398	-0.68423	-0.20367	0.18973	26.9	13111	100
2025-3-13 10:6:32.170	WT901BLE68(E947F43FF2E9)	-0.550	1.294	-0.299	-54.443	136.230	107.910	100.87	-34.39	90.74	17.444	-75.362	13.230	0.23849	0.63370	0.34818	0.64822	27.6	13111	100
2025-3-13 10:6:32.230	WT901BLE68(490AABDC0D29)	-0.069	-1.024	-0.041	-28.625	19.348	-48.401	-90.04	14.43	41.72	41.160	36.848	36.358	0.62393	-0.69217	-0.17947	0.31509	26.9	13111	100
2025-3-13 10:6:32.290	WT901BLE68(E947F43FF2E9)	-0.202	0.327	-0.009	-51.025	98.877	-31.677	91.67	-42.59	95.65	17.444	-75.362	13.230	0.23849	0.63370	0.34818	0.64822	27.6	13111	100
2025-3-13 10:6:32.343	WT901BLE68(490AABDC0D29)	-0.078	-0.994	-0.109	-17.822	4.150	-44.373	-92.89	9.16	40.90	41.160	36.848	36.358	0.62393	-0.69217	-0.17947	0.31509	26.9	13111	100
2025-3-13 10:6:32.381	WT901BLE68(E947F43FF2E9)	-0.025	0.818	-0.130	69.336	-33.508	-209.839	96.06	-29.65	88.80	24.598	-77.126	5.880	0.23849	0.63370	0.34818	0.64822	27.6	13111	100
2025-3-13 10:6:32.431	WT901BLE68(490AABDC0D29)	-0.033	-0.982	-0.121	-10.803	0.061	-42.969	-94.26	5.02	40.31	25.480	48.706	41.356	0.62393	-0.69217	-0.17947	0.31509	26.9	13111	100
2025-3-13 10:6:32.501	WT901BLE68(E947F43FF2E9)	2.158	1.715	0.061	79.834	39.429	-302.612	103.27	-3.00	91.95	24.598	-77.126	5.880	0.23849	0.63370	0.34818	0.64822	27.6	13111	100
2025-3-13 10:6:32.582	WT901BLE68(490AABDC0D29)	0.001	-0.992	-0.122	-4.578	5.615	-51.147	-94.99	0.60	39.48	25.480	48.706	41.356	0.62393	-0.69217	-0.17947	0.31509	26.9	13111	100
2025-3-13 10:6:32.590	WT901BLE68(E947F43FF2E9)	0.346	1.088	0.128	6.226	-24.414	-48.340	109.76	18.69	98.51	24.598	-77.126	5.880	0.45264	0.48392	0.63589	0.39554	27.6	13111	100
2025-3-13 10:6:32.613	WT901BLE68(490AABDC0D29)	-0.141	-1.077	-0.068	-11.719	0.244	-85.205	-95.72	-5.51	39.22	25.480	48.706	41.356	0.64560	-0.68338	-0.29138	0.17654	26.9	13111	100
2025-3-13 10:6:32.707	WT901BLE68(E947F43FF2E9)	0.127	0.979	-0.395	26.855	-59.448	139.343	105.70	8.23	95.73	24.598	-77.126	5.880	0.45264	0.48392	0.63589	0.39554	27.6	13111	100
2025-3-13 10:6:32.732	WT901BLE68(490AABDC0D29)	-0.469	-1.588	-0.123	-41.016	100.464	-167.114	-97.67	-17.61	36.00	25.480	48.706	41.356	0.64560	-0.68338	-0.29138	0.17654	26.9	13111	100
2025-3-13 10:6:32.768	WT901BLE68(E947F43FF2E9)	0.072	0.958	-0.220	10.803	-3.357	53.467	107.16	-1.39	89.97	43.512	-64.484	13.230	0.45264	0.48392	0.63589	0.39554	27.6	13111	100
2025-3-13 10:6:32.831	WT901BLE68(490AABDC0D29)	-0.147	-0.710	-0.159	-17.273	-77.393	-49.194	-96.59	-28.89	28.34	-10.094	49.196	46.550	0.64560	-0.68338	-0.29138	0.17654	26.9	13111	100
2025-3-13 10:6:32.890	WT901BLE68(E947F43FF2E9)	0.030	0.961	-0.227	-1.526	6.531	28.503	107.41	-5.51	89.13	43.512	-64.484	13.230	0.45264	0.48392	0.63589	0.39554	27.6	13111	100
2025-3-13 10:6:32.941	WT901BLE68(490AABDC0D29)	0.049	-0.751	0.081	43.762	-7.446	148.560	-98.50	-18.37	33.55	-10.094	49.196	46.550	0.64560	-0.68338	-0.29138	0.17654	26.9	13111	100
2025-3-13 10:6:32.980	WT901BLE68(E947F43FF2E9)	0.108	0.972	-0.220	-8.850	9.033	31.677	106.35	-8.20	89.17	43.512	-64.484	13.230	0.37833	0.60410	0.51764	0.47314	27.6	13111	100
2025-3-13 10:6:33.35	WT901BLE68(490AABDC0D29)	1.005	-1.317	-0.007	66.956	-27.832	247.070	-91.94	3.82	31.94	-10.094	49.196	46.550	0.65689	-0.69406	-0.09695	0.27792	26.9	13111	100
2025-3-13 10:6:33.101	WT901BLE68(E947F43FF2E9)	0.147	0.980	-0.209	-6.470	9.888	40.161	105.39	-11.64	88.98	43.512	-64.484	13.230	0.37833	0.60410	0.51764	0.47314	27.6	13111	100
2025-3-13 10:6:33.153	WT901BLE68(490AABDC0D29)	-0.839	-1.196	-0.184	54.321	70.618	181.946	-86.69	26.22	29.03	-10.094	49.196	46.550	0.65689	-0.69406	-0.09695	0.27792	26.9	13111	100
2025-3-13 10:6:33.189	WT901BLE68(E947F43FF2E9)	-0.011	1.079	-0.155	-14.954	9.705	54.077	104.35	-15.81	88.59	28.126	-70.756	12.250	0.37833	0.60410	0.51764	0.47314	27.6	13111	100
2025-3-13 10:6:33.213	WT901BLE68(490AABDC0D29)	-0.146	-1.249	0.303	-32.898	-39.917	-81.909	-88.02	27.05	26.77	26.852	22.736	39.690	0.65689	-0.69406	-0.09695	0.27792	26.9	13111	100
2025-3-13 10:6:33.311	WT901BLE68(E947F43FF2E9)	0.575	1.673	-0.266	-22.644	34.302	128.967	102.49	-24.18	87.65	28.126	-70.756	12.250	0.37833	0.60410	0.51764	0.47314	27.6	13111	100
2025-3-13 10:6:33.332	WT901BLE68(490AABDC0D29)	-0.319	-0.999	-0.160	-51.147	-25.818	-52.673	-91.19	19.59	32.29	26.852	22.736	39.690	0.65689	-0.69406	-0.09695	0.27792	26.9	13111	100
2025-3-13 10:6:33.369	WT901BLE68(E947F43FF2E9)	-0.448	0.425	-0.035	-63.049	101.990	115.967	91.74	-36.79	96.14	28.126	-70.756	12.250	0.31778	0.62442	0.33817	0.62820	27.6	13111	100
2025-3-13 10:6:33.433	WT901BLE68(490AABDC0D29)	-0.170	-0.957	-0.094	-32.532	-12.512	-52.246	-94.42	14.26	31.59	26.852	22.736	39.690	0.62262	-0.72583	-0.12970	0.26187	26.9	13111	100
2025-3-13 10:6:33.489	WT901BLE68(E947F43FF2E9)	0.031	0.299	-0.279	-8.057	-61.951	-142.029	91.97	-31.76	88.40	28.126	-70.756	12.250	0.31778	0.62442	0.33817	0.62820	27.6	13111	100
2025-3-13 10:6:33.543	WT901BLE68(490AABDC0D29)	-0.104	-0.982	-0.135	-13.916	-0.977	-38.757	-96.26	9.61	31.57	26.852	22.736	39.690	0.62262	-0.72583	-0.12970	0.26187	26.9	13111	100
2025-3-13 10:6:33.581	WT901BLE68(E947F43FF2E9)	0.922	1.308	-0.222	77.454	-17.578	-254.639	101.05	-9.31	80.77	34.300	-60.368	11.564	0.31778	0.62442	0.33817	0.62820	27.6	13111	100
2025-3-13 10:6:33.634	WT901BLE68(490AABDC0D29)	-0.058	-0.976	-0.147	-6.836	2.625	-40.100	-97.09	5.81	31.03	14.504	31.164	42.924	0.62262	-0.72583	-0.12970	0.26187	26.9	13111	100
2025-3-13 10:6:33.699	WT901BLE68(E947F43FF2E9)	-0.432	1.886	0.188	71.655	13.000	-190.247	109.26	13.82	87.16	34.300	-60.368	11.564	0.31778	0.62442	0.33817	0.62820	27.6	13111	100
2025-3-13 10:6:33.781	WT901BLE68(490AABDC0D29)	-0.259	-0.983	-0.108	-8.911	1.770	-55.969	-97.70	1.37	30.26	14.504	31.164	42.924	0.62262	-0.72583	-0.12970	0.26187	26.9	13111	100
2025-3-13 10:6:33.789	WT901BLE68(E947F43FF2E9)	0.333	1.368	0.082	-46.509	-67.078	101.440	107.93	11.40	87.09	34.300	-60.368	11.564	0.47476	0.59311	0.54874	0.34869	27.6	13111	100
2025-3-13 10:6:33.843	WT901BLE68(490AABDC0D29)	-0.125	-1.554	-0.331	-38.208	57.678	-97.290	-99.51	-5.83	29.41	14.504	31.164	42.924	0.63614	-0.73489	-0.23404	0.02017	26.9	13111	100
2025-3-13 10:6:33.916	WT901BLE68(E947F43FF2E9)	0.036	1.007	-0.146	3.479	0.977	73.059	107.95	3.62	80.13	34.300	-60.368	11.564	0.47476	0.59311	0.54874	0.34869	27.6	13111	100
2025-3-13 10:6:33.964	WT901BLE68(490AABDC0D29)	-0.083	-0.884	-0.001	-7.507	65.918	-119.019	-100.88	-19.02	20.16	14.504	31.164	42.924	0.63614	-0.73489	-0.23404	0.02017	26.9	13111	100
2025-3-13 10:6:33.998	WT901BLE68(E947F43FF2E9)	-0.042	1.023	-0.250	-3.418	-2.625	27.954	107.76	-0.67	80.90	27.832	-62.034	14.896	0.47476	0.59311	0.54874	0.34869	27.6	13111	100
2025-3-13 10:6:34.23	WT901BLE68(490AABDC0D29)	0.142	-0.596	-0.126	47.180	-141.113	72.937	-102.99	-19.20	27.21	-8.036	36.064	47.628	0.63614	-0.73489	-0.23404	0.02017	26.9	13111	100
2025-3-13 10:6:34.118	WT901BLE68(E947F43FF2E9)	0.032	0.951	-0.248	1.831	7.813	23.315	107.05	-2.89	81.75	27.832	-62.034	14.896	0.47476	0.59311	0.54874	0.34869	27.6	13111	100
2025-3-13 10:6:34.143	WT901BLE68(490AABDC0D29)	0.250	-1.093	-0.191	69.580	-26.245	182.495	-96.02	-3.85	27.41	-8.036	36.064	47.628	0.63614	-0.73489	-0.23404	0.02017	26.9	13111	100
2025-3-13 10:6:34.178	WT901BLE68(E947F43FF2E9)	0.119	0.968	-0.223	2.930	1.343	40.161	107.03	-5.71	82.08	27.832	-62.034	14.896	0.40805	0.63580	0.48877	0.43619	27.6	13111	100
2025-3-13 10:6:34.230	WT901BLE68(490AABDC0D29)	0.646	-1.344	-0.056	65.674	132.996	181.335	-90.60	14.70	19.48	-8.036	36.064	47.628	0.67505	-0.70532	0.03043	0.21390	26.9	13111	100
2025-3-13 10:6:34.300	WT901BLE68(E947F43FF2E9)	0.154	0.968	-0.246	-6.836	5.432	47.729	106.75	-9.59	81.70	27.832	-62.034	14.896	0.40805	0.63580	0.48877	0.43619	27.6	13111	100
2025-3-13 10:6:34.354	WT901BLE68(490AABDC0D29)	-0.168	-1.044	-0.194	11.230	114.929	40.955	-91.13	25.14	7.01	-8.036	36.064	47.628	0.67505	-0.70532	0.03043	0.21390	26.9	13111	100
2025-3-13 10:6:34.390	WT901BLE68(E947F43FF2E9)	0.224	1.203	-0.220	-17.761	-2.441	63.049	105.75	-14.24	81.22	15.386	-64.876	14.798	0.40805	0.63580	0.48877	0.43619	27.6	13111	100
2025-3-13 10:6:34.441	WT901BLE68(490AABDC0D29)	-0.275	-0.971	-0.085	-42.358	-110.168	-53.345	-91.59	20.77	12.72	20.776	30.380	41.650	0.67505	-0.70532	0.03043	0.21390	26.9	13111	100
2025-3-13 10:6:34.540	WT901BLE68(E947F43FF2E9)	0.046	1.092	-0.158	-37.109	-2.563	70.313	103.08	-20.21	80.29	15.386	-64.876	14.798	0.40805	0.63580	0.48877	0.43619	27.6	13111	100
2025-3-13 10:6:34.563	WT901BLE68(490AABDC0D29)	-0.192	-0.991	-0.020	-13.428	40.222	-32.654	-93.34	16.22	14.95	20.776	30.380	41.650	0.67505	-0.70532	0.03043	0.21390	26.9	13111	100
2025-3-13 10:6:34.598	WT901BLE68(E947F43FF2E9)	-0.071	1.252	-0.254	-46.326	48.157	98.877	98.95	-27.92	80.73	15.386	-64.876	14.798	0.33777	0.65286	0.31363	0.60098	27.6	13111	100
2025-3-13 10:6:34.622	WT901BLE68(490AABDC0D29)	-0.119	-0.958	-0.091	-18.005	1.709	-37.537	-95.36	12.30	14.45	20.776	30.380	41.650	0.65292	-0.74026	-0.02557	0.15799	26.9	13111	100
2025-3-13 10:6:34.720	WT901BLE68(E947F43FF2E9)	-0.212	0.360	-0.229	-35.767	-2.319	52.795	92.39	-36.55	84.35	15.386	-64.876	14.798	0.33777	0.65286	0.31363	0.60098	27.6	13111	100
2025-3-13 10:6:34.742	WT901BLE68(490AABDC0D29)	-0.129	-1.005	-0.141	-13.245	0.732	-33.264	-96.96	8.70	14.47	20.776	30.380	41.650	0.65292	-0.74026	-0.02557	0.15799	26.9	13111	100
2025-3-13 10:6:34.778	WT901BLE68(E947F43FF2E9)	-0.065	0.637	-0.181	40.833	-35.278	-155.518	93.04	-28.38	80.15	10.878	-65.660	11.172	0.33777	0.65286	0.31363	0.60098	27.6	13111	100
2025-3-13 10:6:34.832	WT901BLE68(490AABDC0D29)	-0.075	-0.976	-0.127	-4.761	-0.122	-27.100	-97.63	6.08	14.22	11.368	35.770	44.982	0.65292	-0.74026	-0.02557	0.15799	26.9	13111	100
2025-3-13 10:6:34.899	WT901BLE68(E947F43FF2E9)	0.584	1.355	-0.080	68.359	-6.287	-239.990	100.02	-7.21	77.35	10.878	-65.660	11.172	0.33777	0.65286	0.31363	0.60098	27.6	13111	100
2025-3-13 10:6:34.954	WT901BLE68(490AABDC0D29)	-0.039	-0.985	-0.126	-4.517	-2.197	-30.945	-97.99	3.34	14.51	11.368	35.770	44.982	0.65292	-0.74026	-0.02557	0.15799	26.9	13111	100
2025-3-13 10:6:34.990	WT901BLE68(E947F43FF2E9)	0.285	1.617	-0.042	51.819	7.141	-198.425	106.72	15.85	84.75	10.878	-65.660	11.172	0.49814	0.50940	0.62292	0.32275	27.6	13111	100
2025-3-13 10:6:35.41	WT901BLE68(490AABDC0D29)	0.033	-0.984	-0.127	-6.042	-5.981	-41.687	-98.41	-0.07	14.84	11.368	35.770	44.982	0.64728	-0.75046	-0.11063	0.07434	26.9	13111	100
2025-3-13 10:6:35.109	WT901BLE68(E947F43FF2E9)	-0.524	0.845	0.005	-23.193	-15.015	78.857	107.57	16.00	88.77	10.878	-65.660	11.172	0.49814	0.50940	0.62292	0.32275	27.6	13111	100
2025-3-13 10:6:35.163	WT901BLE68(490AABDC0D29)	-0.051	-1.094	-0.110	-14.771	-8.362	-73.120	-99.42	-5.42	15.84	11.368	35.770	44.982	0.64728	-0.75046	-0.11063	0.07434	26.9	13111	100
2025-3-13 10:6:35.200	WT901BLE68(E947F43FF2E9)	-0.212	0.971	-0.012	16.113	-28.687	72.083	104.33	9.69	82.25	43.512	-62.916	21.756	0.49814	0.50940	0.62292	0.32275	27.6	13111	100
2025-3-13 10:6:35.252	WT901BLE68(490AABDC0D29)	0.078	-1.467	-0.136	-42.480	34.058	-118.408	-102.00	-14.78	15.50	-9.114	40.572	47.432	0.64728	-0.75046	-0.11063	0.07434	26.9	13111	100
2025-3-13 10:6:35.324	WT901BLE68(E947F43FF2E9)	0.003	0.883	-0.063	-9.705	2.380	37.109	104.58	3.54	78.94	43.512	-62.916	21.756	0.49814	0.50940	0.62292	0.32275	27.6	13111	100
2025-3-13 10:6:35.372	WT901BLE68(490AABDC0D29)	-0.050	-0.654	-0.538	-12.756	6.348	-87.646	-102.09	-27.29	10.79	-9.114	40.572	47.432	0.64728	-0.75046	-0.11063	0.07434	26.9	13111	100
2025-3-13 10:6:35.410	WT901BLE68(E947F43FF2E9)	-0.007	0.997	-0.191	3.052	-4.822	33.386	104.23	-0.03	78.85	43.512	-62.916	21.756	0.45959	0.61105	0.49905	0.40771	27.6	13111	100
2025-3-13 10:6:35.431	WT901BLE68(490AABDC0D29)	0.167	-0.678	-0.026	42.419	-52.002	97.595	-103.57	-23.99	14.57	-9.114	40.572	47.432	0.64304	-0.74374	-0.17996	-0.02924	26.9	13111	100
2025-3-13 10:6:35.529	WT901BLE68(E947F43FF2E9)	0.042	0.967	-0.188	2.991	9.583	26.489	104.19	-2.79	80.59	43.512	-62.916	21.756	0.45959	0.61105	0.49905	0.40771	27.6	13111	100
2025-3-13 10:6:35.553	WT901BLE68(490AABDC0D29)	0.070	-1.134	-0.111	81.421	-48.950	191.345	-96.69	-7.45	13.68	-9.114	40.572	47.432	0.64304	-0.74374	-0.17996	-0.02924	26.9	13111	100
2025-3-13 10:6:35.589	WT901BLE68(E947F43FF2E9)	0.112	0.983	-0.213	8.301	12.817	31.921	104.75	-5.80	82.45	32.634	-68.208	23.226	0.45959	0.61105	0.49905	0.40771	27.6	13111	100
2025-3-13 10:6:35.643	WT901BLE68(490AABDC0D29)	0.535	-1.327	-0.147	59.387	-23.804	194.092	-89.25	11.74	16.65	23.520	36.652	33.712	0.64304	-0.74374	-0.17996	-0.02924	26.9	13111	100
2025-3-13 10:6:35.709	WT901BLE68(E947F43FF2E9)	0.145	0.993	-0.206	-2.930	7.568	39.612	104.69	-9.15	83.75	32.634	-68.208	23.226	0.45959	0.61105	0.49905	0.40771	27.6	13111	100
2025-3-13 10:6:35.763	WT901BLE68(490AABDC0D29)	-0.295	-1.209	-0.461	20.691	-23.926	100.586	-83.69	26.37	21.07	23.520	36.652	33.712	0.64304	-0.74374	-0.17996	-0.02924	26.9	13111	100
2025-3-13 10:6:35.800	WT901BLE68(E947F43FF2E9)	0.153	1.028	-0.198	-12.939	8.972	45.593	103.69	-13.25	84.60	32.634	-68.208	23.226	0.37103	0.63327	0.43927	0.51791	27.6	13111	100
2025-3-13 10:6:35.851	WT901BLE68(490AABDC0D29)	-0.064	-1.008	0.621	-38.635	-50.537	-19.043	-84.57	23.38	26.62	23.520	36.652	33.712	0.66748	-0.68347	-0.04453	0.29202	26.9	13111	100
2025-3-13 10:6:35.924	WT901BLE68(E947F43FF2E9)	-0.031	1.413	-0.190	-29.114	18.372	89.539	101.33	-19.69	85.36	32.634	-68.208	23.226	0.37103	0.63327	0.43927	0.51791	27.6	13111	100
2025-3-13 10:6:35.973	WT901BLE68(490AABDC0D29)	-0.258	-0.958	-0.080	-41.382	-6.409	-38.879	-88.66	16.69	30.91	23.520	36.652	33.712	0.66748	-0.68347	-0.04453	0.29202	26.9	13111	100
2025-3-13 10:6:36.10	WT901BLE68(E947F43FF2E9)	-0.144	1.116	-0.442	-23.560	135.132	92.529	95.84	-29.57	93.20	7.154	-74.088	16.268	0.37103	0.63327	0.43927	0.51791	27.6	13111	100
2025-3-13 10:6:36.32	WT901BLE68(490AABDC0D29)	-0.154	-0.972	-0.029	-36.560	-2.380	-34.790	-92.15	13.36	31.09	28.910	28.910	31.948	0.66748	-0.68347	-0.04453	0.29202	26.9	13111	100
2025-3-13 10:6:36.129	WT901BLE68(E947F43FF2E9)	0.102	0.341	0.063	-11.414	96.985	-30.884	87.67	-32.37	105.73	7.154	-74.088	16.268	0.37103	0.63327	0.43927	0.51791	27.6	13111	100
2025-3-13 10:6:36.153	WT901BLE68(490AABDC0D29)	-0.145	-1.001	-0.075	-17.273	7.751	-22.522	-94.69	10.30	31.38	28.910	28.910	31.948	0.66748	-0.68347	-0.04453	0.29202	26.9	13111	100
2025-3-13 10:6:36.189	WT901BLE68(E947F43FF2E9)	0.188	0.904	-0.048	69.702	10.681	-165.161	92.94	-20.10	103.39	7.154	-74.088	16.268	0.35095	0.46167	0.59775	0.55341	27.6	13111	100
2025-3-13 10:6:36.271	WT901BLE68(490AABDC0D29)	-0.144	-0.977	-0.096	-12.207	2.625	-21.790	-96.10	8.23	31.52	28.910	28.910	31.948	0.62653	-0.72800	-0.15955	0.22794	26.9	13111	100
2025-3-13 10:6:36.310	WT901BLE68(E947F43FF2E9)	0.398	1.429	0.013	79.407	123.718	-214.111	99.60	-1.41	111.93	7.154	-74.088	16.268	0.35095	0.46167	0.59775	0.55341	27.6	13111	100
2025-3-13 10:6:36.363	WT901BLE68(490AABDC0D29)	-0.095	-0.987	-0.123	-11.292	-5.615	-31.128	-97.11	5.83	31.88	28.910	28.910	31.948	0.62653	-0.72800	-0.15955	0.22794	26.9	13111	100
2025-3-13 10:6:36.400	WT901BLE68(E947F43FF2E9)	-0.473	1.248	0.469	10.559	140.930	-104.553	106.53	11.67	132.43	37.534	-50.764	36.162	0.35095	0.46167	0.59775	0.55341	27.6	13111	100
2025-3-13 10:6:36.450	WT901BLE68(490AABDC0D29)	-0.063	-0.980	-0.117	-7.263	-6.775	-35.095	-97.76	2.81	32.65	21.168	35.280	34.888	0.62653	-0.72800	-0.15955	0.22794	26.9	13111	100
2025-3-13 10:6:36.527	WT901BLE68(E947F43FF2E9)	0.049	0.922	-0.270	-28.992	4.578	49.500	104.73	8.43	140.33	37.534	-50.764	36.162	0.35095	0.46167	0.59775	0.55341	27.6	13111	100
2025-3-13 10:6:36.573	WT901BLE68(490AABDC0D29)	-0.050	-1.048	-0.192	-10.315	-7.446	-69.519	-98.62	-1.96	33.84	21.168	35.280	34.888	0.62653	-0.72800	-0.15955	0.22794	26.9	13111	100
2025-3-13 10:6:36.610	WT901BLE68(E947F43FF2E9)	-0.036	1.075	-0.147	-6.592	-24.475	45.410	102.34	5.28	138.08	37.534	-50.764	36.162	0.35095	0.46167	0.59775	0.55341	27.6	13111	100
2025-3-13 10:6:36.661	WT901BLE68(490AABDC0D29)	0.040	-1.395	-0.036	-12.695	-10.254	-94.910	-99.20	-9.09	35.42	21.168	35.280	34.888	0.63800	-0.69305	-0.31750	0.10834	26.9	13111	100
2025-3-13 10:6:36.730	WT901BLE68(E947F43FF2E9)	-0.013	0.965	-0.165	-4.456	1.038	13.428	101.12	2.49	136.45	37.534	-50.764	36.162	0.25116	0.27356	0.72214	0.58353	27.6	13111	100
2025-3-13 10:6:36.783	WT901BLE68(490AABDC0D29)	-0.144	-0.953	-0.177	15.808	-41.748	-130.798	-99.53	-20.74	38.63	21.168	35.280	34.888	0.63800	-0.69305	-0.31750	0.10834	26.9	13111	100
2025-3-13 10:6:36.831	WT901BLE68(E947F43FF2E9)	0.010	0.975	-0.220	-3.540	10.925	22.156	100.83	0.68	135.97	31.360	-54.586	34.888	0.25116	0.27356	0.72214	0.58353	27.6	13111	100
2025-3-13 10:6:36.843	WT901BLE68(490AABDC0D29)	-0.032	-0.702	-0.187	73.486	-138.672	28.625	-101.32	-20.07	52.09	-2.548	40.474	25.872	0.63800	-0.69305	-0.31750	0.10834	26.9	13111	100
2025-3-13 10:6:36.940	WT901BLE68(E947F43FF2E9)	0.072	0.985	-0.187	-4.639	12.146	17.822	100.34	-1.36	136.26	31.360	-54.586	34.888	0.25116	0.27356	0.72214	0.58353	27.6	13111	100
2025-3-13 10:6:36.961	WT901BLE68(490AABDC0D29)	0.477	-1.063	-0.217	114.441	-251.770	119.202	-93.87	-7.39	62.71	-2.548	40.474	25.872	0.63800	-0.69305	-0.31750	0.10834	26.9	13111	100
2025-3-13 10:6:36.998	WT901BLE68(E947F43FF2E9)	0.088	0.969	-0.192	3.601	22.095	22.217	100.39	-3.60	137.10	31.360	-54.586	34.888	0.19254	0.30081	0.70694	0.61035	27.6	13111	100
2025-3-13 10:6:37.53	WT901BLE68(490AABDC0D29)	0.204	-1.201	-0.792	50.110	-263.855	50.415	-84.86	3.23	87.90	-2.548	40.474	25.872	0.45566	-0.41907	-0.51163	0.59570	26.9	13111	100
2025-3-13 10:6:37.129	WT901BLE68(E947F43FF2E9)	0.165	1.008	-0.234	-4.211	26.917	17.517	100.39	-5.76	138.70	31.360	-54.586	34.888	0.19254	0.30081	0.70694	0.61035	27.6	13111	100
2025-3-13 10:6:37.171	WT901BLE68(490AABDC0D29)	0.019	-1.035	-0.852	-50.842	-109.924	-19.287	-83.99	0.00	109.44	-2.548	40.474	25.872	0.45566	-0.41907	-0.51163	0.59570	26.9	13111	100
2025-3-13 10:6:37.210	WT901BLE68(E947F43FF2E9)	0.088	1.002	-0.231	-15.442	56.458	-18.738	99.16	-6.64	141.39	22.050	-56.742	36.260	0.19254	0.30081	0.70694	0.61035	27.6	13111	100
2025-3-13 10:6:37.261	WT901BLE68(490AABDC0D29)	-0.113	-1.035	0.034	-23.499	-34.363	22.522	-88.40	-1.97	119.96	-15.386	30.380	11.858	0.45566	-0.41907	-0.51163	0.59570	26.9	13111	100
2025-3-13 10:6:37.332	WT901BLE68(E947F43FF2E9)	0.306	0.882	-0.264	-19.958	114.807	-56.091	97.05	-4.04	148.67	22.050	-56.742	36.260	0.19254	0.30081	0.70694	0.61035	27.6	13111	100
2025-3-13 10:6:37.383	WT901BLE68(490AABDC0D29)	-0.088	-1.005	-0.021	-18.982	-28.748	17.273	-90.25	-0.36	129.72	-15.386	30.380	11.858	0.45566	-0.41907	-0.51163	0.59570	26.9	13111	100
2025-3-13 10:6:37.431	WT901BLE68(E947F43FF2E9)	0.062	0.996	-0.026	-9.949	256.714	-75.134	95.66	0.42	167.45	22.050	-56.742	36.260	0.19254	0.30081	0.70694	0.61035	27.6	13111	100
2025-3-13 10:6:37.441	WT901BLE68(490AABDC0D29)	-0.096	-1.016	-0.057	-11.963	-22.949	4.517	-92.07	0.40	139.05	-15.386	30.380	11.858	0.21243	-0.22968	-0.68524	0.65762	26.9	13111	100
2025-3-13 10:6:37.539	WT901BLE68(E947F43FF2E9)	-0.157	1.005	0.067	-11.902	213.745	-40.527	95.04	2.92	-169.79	22.050	-56.742	36.260	-0.04657	-0.08939	0.73181	0.67392	27.6	13111	100
2025-3-13 10:6:37.563	WT901BLE68(490AABDC0D29)	-0.122	-0.994	-0.059	1.465	-14.282	8.484	-92.70	1.00	147.80	-15.386	30.380	11.858	0.21243	-0.22968	-0.68524	0.65762	26.9	13111	100
2025-3-13 10:6:37.601	WT901BLE68(E947F43FF2E9)	-0.134	1.031	0.088	-28.870	202.026	-26.245	93.86	4.15	-149.91	-5.684	-59.878	23.912	-0.04657	-0.08939	0.73181	0.67392	27.6	13111	100
2025-3-13 10:6:37.653	WT901BLE68(490AABDC0D29)	-0.100	-0.989	-0.034	5.005	-15.869	5.554	-92.52	1.83	156.07	-16.170	31.752	14.504	0.21243	-0.22968	-0.68524	0.65762	26.9	13111	100
2025-3-13 10:6:37.719	WT901BLE68(E947F43FF2E9)	-0.037	0.953	-0.083	-22.095	114.258	-16.479	92.22	5.16	-136.77	-5.684	-59.878	23.912	-0.04657	-0.08939	0.73181	0.67392	27.6	13111	100
2025-3-13 10:6:37.801	WT901BLE68(490AABDC0D29)	-0.102	-1.004	-0.018	9.827	-16.296	-4.639	-92.09	1.91	164.10	-16.170	31.752	14.504	0.21243	-0.22968	-0.68524	0.65762	26.9	13111	100
2025-3-13 10:6:37.810	WT901BLE68(E947F43FF2E9)	0.055	0.906	-0.249	-8.179	141.235	-27.527	92.18	6.99	-124.44	-5.684	-59.878	23.912	-0.35901	-0.46533	0.56570	0.57831	27.6	13111	100
2025-3-13 10:6:37.862	WT901BLE68(490AABDC0D29)	-0.086	-1.007	0.009	17.273	-16.174	-2.563	-90.96	1.66	171.84	-16.170	31.752	14.504	0.00552	-0.02350	-0.70361	0.71008	26.9	13111	100
2025-3-13 10:6:37.939	WT901BLE68(E947F43FF2E9)	-0.115	0.875	-0.459	11.353	143.372	5.676	94.62	7.42	-106.40	-5.684	-59.878	23.912	-0.35901	-0.46533	0.56570	0.57831	27.6	13111	100
2025-3-13 10:6:37.983	WT901BLE68(490AABDC0D29)	-0.528	-1.061	0.009	34.790	-31.189	-6.165	-88.61	1.31	-179.66	-16.170	31.752	14.504	0.00552	-0.02350	-0.70361	0.71008	26.9	13111	100
2025-3-13 10:6:38.19	WT901BLE68(E947F43FF2E9)	0.030	0.944	-0.124	33.386	-27.893	31.067	97.60	5.97	-102.95	-5.684	-59.878	23.912	-0.35901	-0.46533	0.56570	0.57831	27.6	13111	100
2025-3-13 10:6:38.71	WT901BLE68(490AABDC0D29)	-0.375	-0.995	-0.249	20.569	-159.058	-19.470	-85.76	-0.18	-166.84	-25.774	28.714	12.936	0.00552	-0.02350	-0.70361	0.71008	26.9	13111	100
2025-3-13 10:6:38.138	WT901BLE68(E947F43FF2E9)	0.021	0.982	-0.108	5.859	4.028	11.414	98.45	4.52	-105.62	-13.132	-61.152	10.192	-0.35901	-0.46533	0.56570	0.57831	27.6	13111	100
2025-3-13 10:6:38.191	WT901BLE68(490AABDC0D29)	-0.339	-1.165	-0.857	-61.340	-241.211	-62.012	-90.00	-6.56	-138.31	-25.774	28.714	12.936	0.00552	-0.02350	-0.70361	0.71008	26.9	13111	100
2025-3-13 10:6:38.199	WT901BLE68(E947F43FF2E9)	-0.017	0.994	-0.148	7.385	24.597	11.047	99.33	3.08	-104.15	-13.132	-61.152	10.192	-0.35901	-0.46533	0.56570	0.57831	27.6	13111	100
2025-3-13 10:6:38.251	WT901BLE68(490AABDC0D29)	-0.110	-0.992	0.182	-42.969	-162.720	1.526	-100.35	-7.04	-115.69	-25.774	28.714	12.936	-0.36533	0.47849	-0.61221	0.51254	26.9	13111	100
2025-3-13 10:6:38.349	WT901BLE68(E947F43FF2E9)	0.046	0.989	-0.150	0.854	6.531	18.066	99.56	1.52	-102.73	-13.132	-61.152	10.192	-0.39658	-0.48270	0.59155	0.50958	27.6	13111	100
2025-3-13 10:6:38.371	WT901BLE68(490AABDC0D29)	0.124	-1.017	0.141	23.560	-117.981	100.159	-101.10	3.11	-99.72	-25.774	28.714	12.936	-0.36533	0.47849	-0.61221	0.51254	26.9	13111	100
2025-3-13 10:6:38.420	WT901BLE68(E947F43FF2E9)	0.122	0.968	-0.173	2.869	13.245	31.921	99.60	-1.12	-101.91	-18.914	-57.036	9.702	-0.39658	-0.48270	0.59155	0.50958	27.6	13111	100
2025-3-13 10:6:38.461	WT901BLE68(490AABDC0D29)	0.560	-1.130	0.102	44.495	-29.968	141.907	-96.54	16.69	-93.13	-20.874	44.100	40.278	-0.36533	0.47849	-0.61221	0.51254	26.9	13111	100
2025-3-13 10:6:38.528	WT901BLE68(E947F43FF2E9)	0.220	1.014	-0.176	11.780	13.184	44.250	100.38	-5.02	-100.60	-18.914	-57.036	9.702	-0.39658	-0.48270	0.59155	0.50958	27.6	13111	100
2025-3-13 10:6:38.581	WT901BLE68(490AABDC0D29)	-1.050	-1.048	-0.390	21.362	11.230	61.096	-89.76	28.14	-87.45	-20.874	44.100	40.278	-0.36533	0.47849	-0.61221	0.51254	26.9	13111	100
2025-3-13 10:6:38.621	WT901BLE68(E947F43FF2E9)	0.221	1.082	-0.197	-2.930	7.019	58.228	100.91	-9.88	-100.12	-18.914	-57.036	9.702	-0.49710	-0.41748	0.63718	0.41531	27.6	13111	100
2025-3-13 10:6:38.671	WT901BLE68(490AABDC0D29)	-0.244	-1.066	0.824	-37.048	-20.508	13.489	-90.15	24.05	-82.36	-20.874	44.100	40.278	-0.61697	0.45889	-0.54587	0.33270	26.9	13111	100
2025-3-13 10:6:38.738	WT901BLE68(E947F43FF2E9)	-0.001	1.204	-0.142	-27.527	37.842	89.661	99.48	-17.11	-99.29	-18.914	-57.036	9.702	-0.49710	-0.41748	0.63718	0.41531	27.6	13111	100
2025-3-13 10:6:38.791	WT901BLE68(490AABDC0D29)	-0.219	-1.067	-0.183	-60.120	-46.631	-48.950	-93.04	18.10	-75.15	-20.874	44.100	40.278	-0.61697	0.45889	-0.54587	0.33270	26.9	13111	100
2025-3-13 10:6:38.829	WT901BLE68(E947F43FF2E9)	-0.241	1.228	-0.334	-41.687	109.497	99.487	94.25	-26.63	-94.34	-18.914	-57.036	9.702	-0.49710	-0.41748	0.63718	0.41531	27.6	13111	100
2025-3-13 10:6:38.851	WT901BLE68(490AABDC0D29)	-0.154	-1.006	-0.112	-36.743	15.137	-41.077	-97.20	13.27	-72.63	-23.814	44.002	50.862	-0.61697	0.45889	-0.54587	0.33270	26.9	13111	100
2025-3-13 10:6:38.949	WT901BLE68(E947F43FF2E9)	-0.118	0.389	0.028	-16.235	109.436	-1.038	86.10	-34.60	-82.78	-31.654	-35.966	-3.136	-0.49710	-0.41748	0.63718	0.41531	27.6	13111	100
2025-3-13 10:6:38.973	WT901BLE68(490AABDC0D29)	-0.129	-0.986	-0.112	-18.738	6.470	-32.715	-99.70	9.46	-71.00	-23.814	44.002	50.862	-0.61697	0.45889	-0.54587	0.33270	26.9	13111	100
2025-3-13 10:6:39.21	WT901BLE68(E947F43FF2E9)	-0.114	0.666	-0.083	52.124	-40.710	-147.644	88.40	-25.35	-82.07	-31.654	-35.966	-3.136	-0.49710	-0.41748	0.63718	0.41531	27.6	13111	100
2025-3-13 10:6:39.61	WT901BLE68(490AABDC0D29)	-0.025	-0.971	-0.112	-13.672	0.183	-37.415	-100.90	6.33	-68.63	-23.814	44.002	50.862	-0.54239	0.63364	-0.44537	0.32535	26.9	13111	100
2025-3-13 10:6:39.128	WT901BLE68(E947F43FF2E9)	0.450	1.325	-0.084	77.148	8.301	-257.080	95.47	-3.32	-81.79	-31.654	-35.966	-3.136	-0.50922	-0.56149	0.48868	0.43185	27.6	13111	100
2025-3-13 10:6:39.183	WT901BLE68(490AABDC0D29)	0.051	-0.988	-0.136	-14.099	-4.700	-42.908	-102.01	2.50	-65.64	-23.814	44.002	50.862	-0.54239	0.63364	-0.44537	0.32535	26.9	13111	100
2025-3-13 10:6:39.223	WT901BLE68(E947F43FF2E9)	-0.463	1.813	0.117	74.036	43.518	-229.431	105.06	21.54	-72.97	13.132	-70.952	7.742	-0.50922	-0.56149	0.48868	0.43185	27.6	13111	100
2025-3-13 10:6:39.272	WT901BLE68(490AABDC0D29)	-0.057	-0.999	-0.115	-16.663	-14.099	-56.091	-103.19	-1.75	-62.29	-38.220	35.966	55.958	-0.54239	0.63364	-0.44537	0.32535	26.9	13111	100
2025-3-13 10:6:39.338	WT901BLE68(E947F43FF2E9)	0.094	1.298	-0.134	-35.767	-67.139	126.343	106.29	26.53	-76.38	13.132	-70.952	7.742	-0.50922	-0.56149	0.48868	0.43185	27.6	13111	100
2025-3-13 10:6:39.392	WT901BLE68(490AABDC0D29)	-0.042	-1.417	-0.167	-39.246	3.174	-95.459	-105.53	-8.15	-57.43	-38.220	35.966	55.958	-0.54239	0.63364	-0.44537	0.32535	26.9	13111	100
2025-3-13 10:6:39.428	WT901BLE68(E947F43FF2E9)	-0.005	0.977	-0.498	45.654	-97.351	100.037	100.59	18.80	-91.21	13.132	-70.952	7.742	-0.50922	-0.56149	0.48868	0.43185	27.6	13111	100
2025-3-13 10:6:39.454	WT901BLE68(490AABDC0D29)	-0.633	-1.301	-0.088	-48.340	100.586	-139.587	-110.42	-20.44	-57.46	-38.220	35.966	55.958	-0.37820	0.75446	-0.27557	0.46011	26.9	13111	100
2025-3-13 10:6:39.549	WT901BLE68(E947F43FF2E9)	0.004	1.039	-0.210	13.672	5.920	39.673	98.68	13.81	-99.94	13.132	-70.952	7.742	-0.34610	-0.54431	0.52628	0.55392	27.6	13111	100
2025-3-13 10:6:39.603	WT901BLE68(490AABDC0D29)	-0.134	-0.570	0.117	0.488	-15.442	2.930	-109.50	-28.81	-60.59	-38.220	35.966	55.958	-0.37820	0.75446	-0.27557	0.46011	26.9	13111	100
2025-3-13 10:6:39.610	WT901BLE68(E947F43FF2E9)	0.001	0.986	-0.217	-5.310	12.634	21.362	98.49	10.40	-103.94	13.132	-70.952	7.742	-0.34610	-0.54431	0.52628	0.55392	27.6	13111	100
2025-3-13 10:6:39.661	WT901BLE68(490AABDC0D29)	0.105	-0.841	-0.036	67.566	-24.048	171.936	-105.33	-15.60	-59.46	-35.868	32.928	48.412	-0.37820	0.75446	-0.27557	0.46011	26.9	13111	100
2025-3-13 10:6:39.760	WT901BLE68(E947F43FF2E9)	0.088	0.968	-0.210	-10.864	9.827	29.480	98.32	7.60	-98.83	-2.646	-67.032	9.408	-0.34610	-0.54431	0.52628	0.55392	27.6	13111	100
2025-3-13 10:6:39.783	WT901BLE68(490AABDC0D29)	0.761	-1.314	-0.082	76.477	-39.734	237.122	-97.08	7.15	-59.50	-35.868	32.928	48.412	-0.37820	0.75446	-0.27557	0.46011	26.9	13111	100
2025-3-13 10:6:39.825	WT901BLE68(E947F43FF2E9)	0.105	1.003	-0.180	-13.611	8.057	44.312	97.51	3.47	-95.22	-2.646	-67.032	9.408	-0.34610	-0.54431	0.52628	0.55392	27.6	13111	100
2025-3-13 10:6:39.873	WT901BLE68(490AABDC0D29)	-0.514	-1.472	-0.085	60.730	27.649	180.359	-90.29	28.30	-58.66	-35.868	32.928	48.412	-0.68927	0.51169	-0.48306	0.17206	26.9	13111	100
2025-3-13 10:6:39.938	WT901BLE68(E947F43FF2E9)	0.065	1.041	-0.199	-16.724	20.142	58.044	96.39	-1.76	-91.27	-2.646	-67.032	9.408	-0.48230	-0.51181	0.54019	0.46207	27.6	13111	100
2025-3-13 10:6:39.993	WT901BLE68(490AABDC0D29)	-0.036	-1.714	1.075	-28.076	23.254	-36.194	-89.70	26.43	-55.38	-35.868	32.928	48.412	-0.68927	0.51169	-0.48306	0.17206	26.9	13111	100
2025-3-13 10:6:40.30	WT901BLE68(E947F43FF2E9)	0.140	1.696	-0.374	-38.025	48.218	131.836	93.98	-11.29	-87.09	-21.952	-51.058	-1.078	-0.48230	-0.51181	0.54019	0.46207	27.6	13111	100
2025-3-13 10:6:40.112	WT901BLE68(490AABDC0D29)	-0.195	-0.973	-0.100	-44.006	-5.249	-53.040	-93.67	16.89	-48.97	-10.192	38.808	40.768	-0.68927	0.51169	-0.48306	0.17206	26.9	13111	100
2025-3-13 10:6:40.149	WT901BLE68(E947F43FF2E9)	-0.088	0.552	-0.011	-64.697	184.326	82.520	84.56	-21.77	-72.03	-21.952	-51.058	-1.078	-0.48230	-0.51181	0.54019	0.46207	27.6	13111	100
2025-3-13 10:6:40.203	WT901BLE68(490AABDC0D29)	-0.171	-1.006	-0.134	-31.006	18.127	-36.865	-97.15	12.12	-50.04	-10.192	38.808	40.768	-0.68927	0.51169	-0.48306	0.17206	26.9	13111	100
2025-3-13 10:6:40.239	WT901BLE68(E947F43FF2E9)	-0.083	0.555	-0.194	9.705	-94.849	-66.406	84.72	-20.18	-73.49	-21.952	-51.058	-1.078	-0.48230	-0.51181	0.54019	0.46207	27.6	13111	100
2025-3-13 10:6:40.263	WT901BLE68(490AABDC0D29)	-0.052	-0.966	-0.115	-14.099	2.869	-36.377	-99.23	8.43	-49.48	-10.192	38.808	40.768	-0.60410	0.68201	-0.34589	0.22397	26.9	13111	100
2025-3-13 10:6:40.360	WT901BLE68(E947F43FF2E9)	0.078	0.971	-0.074	61.584	-46.387	-177.673	91.14	-5.22	-79.52	-21.952	-51.058	-1.078	-0.55200	-0.53311	0.47861	0.42651	27.6	13111	100
2025-3-13 10:6:40.387	WT901BLE68(490AABDC0D29)	0.014	-0.986	-0.150	-10.864	-4.578	-41.748	-100.23	4.79	-47.25	-10.192	38.808	40.768	-0.60410	0.68201	-0.34589	0.22397	26.9	13111	100
2025-3-13 10:6:40.429	WT901BLE68(E947F43FF2E9)	1.393	1.467	-0.120	76.233	-20.996	-235.291	98.51	16.47	-81.62	-21.952	-51.058	-1.078	-0.55200	-0.53311	0.47861	0.42651	27.6	13111	100
2025-3-13 10:6:40.471	WT901BLE68(490AABDC0D29)	0.053	-1.002	-0.158	-7.324	2.502	-47.729	-101.00	0.65	-45.58	-23.030	35.476	43.806	-0.60410	0.68201	-0.34589	0.22397	26.9	13111	100
2025-3-13 10:6:40.539	WT901BLE68(E947F43FF2E9)	0.048	1.356	0.191	37.292	-54.688	-85.938	103.40	34.61	-85.43	9.212	-62.818	10.192	-0.55200	-0.53311	0.47861	0.42651	27.6	13111	100
2025-3-13 10:6:40.626	WT901BLE68(490AABDC0D29)	-0.107	-1.042	-0.108	-11.292	-9.827	-75.562	-101.70	-4.78	-43.57	-23.030	35.476	43.806	-0.60410	0.68201	-0.34589	0.22397	26.9	13111	100
2025-3-13 10:6:40.630	WT901BLE68(E947F43FF2E9)	-0.025	1.111	-0.260	22.949	-33.264	110.168	96.25	28.03	-96.84	9.212	-62.818	10.192	-0.55200	-0.53311	0.47861	0.42651	27.6	13111	100
2025-3-13 10:6:40.683	WT901BLE68(490AABDC0D29)	0.034	-1.556	-0.174	-54.749	78.857	-138.794	-104.37	-15.08	-42.77	-23.030	35.476	43.806	-0.47443	0.75455	-0.19537	0.40903	26.9	13111	100
2025-3-13 10:6:40.749	WT901BLE68(E947F43FF2E9)	0.059	0.992	-0.212	24.841	-20.020	59.204	95.00	19.02	-107.06	9.212	-62.818	10.192	-0.29639	-0.50958	0.53140	0.60825	27.6	13111	100
2025-3-13 10:6:40.802	WT901BLE68(490AABDC0D29)	0.011	-0.633	-0.436	-11.780	31.921	-75.562	-103.01	-28.35	-51.10	-23.030	35.476	43.806	-0.47443	0.75455	-0.19537	0.40903	26.9	13111	100
2025-3-13 10:6:40.841	WT901BLE68(E947F43FF2E9)	0.022	0.969	-0.251	3.662	8.606	31.982	95.73	13.31	-111.77	9.212	-62.818	10.192	-0.29639	-0.50958	0.53140	0.60825	27.6	13111	100
2025-3-13 10:6:40.863	WT901BLE68(490AABDC0D29)	0.133	-0.638	-0.122	29.663	-92.041	85.999	-105.39	-24.28	-44.80	-42.630	24.892	40.572	-0.47443	0.75455	-0.19537	0.40903	26.9	13111	100
2025-3-13 10:6:40.959	WT901BLE68(E947F43FF2E9)	0.060	0.949	-0.262	-3.174	10.986	28.076	96.39	9.68	-109.70	-6.860	-58.800	12.740	-0.29639	-0.50958	0.53140	0.60825	27.6	13111	100
2025-3-13 10:6:41.13	WT901BLE68(490AABDC0D29)	0.051	-1.052	-0.087	65.369	-43.457	180.603	-100.96	-8.23	-42.84	-42.630	24.892	40.572	-0.47443	0.75455	-0.19537	0.40903	26.9	13111	100
2025-3-13 10:6:41.29	WT901BLE68(E947F43FF2E9)	0.134	0.941	-0.287	-8.667	10.315	31.555	96.51	6.27	-106.91	-6.860	-58.800	12.740	-0.29639	-0.50958	0.53140	0.60825	27.6	13111	100
2025-3-13 10:6:41.73	WT901BLE68(490AABDC0D29)	0.279	-1.275	-0.150	47.363	-20.691	198.608	-95.36	10.88	-42.17	-42.630	24.892	40.572	-0.67844	0.61807	-0.37640	0.12616	26.9	13111	100
2025-3-13 10:6:41.169	WT901BLE68(E947F43FF2E9)	0.179	0.998	-0.219	-9.033	12.817	41.504	96.34	2.37	-103.83	-6.860	-58.800	12.740	-0.40283	-0.46960	0.57822	0.53171	27.6	13111	100
2025-3-13 10:6:41.193	WT901BLE68(490AABDC0D29)	0.058	-1.231	-0.151	46.082	52.612	145.447	-91.22	27.10	-44.10	-42.630	24.892	40.572	-0.67844	0.61807	-0.37640	0.12616	26.9	13111	100
2025-3-13 10:6:41.230	WT901BLE68(E947F43FF2E9)	0.174	1.075	-0.178	-15.808	13.733	53.284	95.68	-2.61	-101.10	-6.860	-58.800	12.740	-0.40283	-0.46960	0.57822	0.53171	27.6	13111	100
2025-3-13 10:6:41.283	WT901BLE68(490AABDC0D29)	0.047	-1.177	0.107	-18.921	16.174	-100.769	-94.86	27.35	-52.41	-15.484	48.412	35.966	-0.67844	0.61807	-0.37640	0.12616	26.9	13111	100
2025-3-13 10:6:41.349	WT901BLE68(E947F43FF2E9)	-0.283	1.408	-0.244	-30.701	20.752	91.248	93.78	-9.85	-99.65	-19.502	-50.274	8.134	-0.40283	-0.46960	0.57822	0.53171	27.6	13111	100
2025-3-13 10:6:41.401	WT901BLE68(490AABDC0D29)	-0.268	-0.949	-0.216	-39.368	-26.611	-60.120	-96.39	19.79	-48.02	-15.484	48.412	35.966	-0.67844	0.61807	-0.37640	0.12616	26.9	13111	100
2025-3-13 10:6:41.438	WT901BLE68(E947F43FF2E9)	-0.275	1.031	-0.180	-66.528	124.573	101.563	87.58	-19.64	-92.11	-19.502	-50.274	8.134	-0.40283	-0.46960	0.57822	0.53171	27.6	13111	100
