time	DeviceName	AccX(g)	AccY(g)	AccZ(g)	AsX(°/s)	AsY(°/s)	AsZ(°/s)	AngleX(°)	AngleY(°)	AngleZ(°)	HX(uT)	HY(uT)	HZ(uT)	Q0()	Q1()	Q2()	Q3()	Temperature(°C)	Version()	Battery level(%)
2025-3-19 12:54:37.141	WT901BLE68(E947F43FF2E9)	-0.213	0.976	0.035	-0.732	-0.061	0.122	86.62	11.63	-6.23	12.740	-63.210	-10.780	0.71896	0.68542	0.03641	-0.10876	21.6	13111	100
2025-3-19 12:54:37.200	WT901BLE68(E947F43FF2E9)	-0.213	0.976	0.035	-1.221	0.000	0.183	86.61	11.67	-6.25	12.740	-63.210	-10.878	0.71896	0.68542	0.03641	-0.10876	21.6	13111	100
2025-3-19 12:54:37.221	WT901BLE68(490AABDC0D29)	0.101	0.980	-0.122	-2.625	-1.465	0.427	92.77	-5.57	-176.82	-9.898	-39.102	56.644	0.05426	-0.01352	-0.72379	-0.68768	20.3	13111	100
2025-3-19 12:54:37.281	WT901BLE68(490AABDC0D29)	0.099	0.980	-0.121	-2.808	-1.648	0.061	92.77	-5.59	-176.83	-9.898	-39.102	56.644	0.05426	-0.01352	-0.72379	-0.68768	20.3	13111	100
2025-3-19 12:54:37.319	WT901BLE68(E947F43FF2E9)	-0.211	0.976	0.037	-0.793	0.183	0.427	86.59	11.67	-6.27	12.740	-63.210	-10.878	0.71896	0.68542	0.03641	-0.10876	21.6	13111	100
2025-3-19 12:54:37.402	WT901BLE68(490AABDC0D29)	0.099	0.979	-0.123	-2.930	-1.587	0.061	92.76	-5.59	-176.83	-9.898	-39.102	56.644	0.05426	-0.01352	-0.72379	-0.68768	20.3	13111	100
2025-3-19 12:54:37.409	WT901BLE68(E947F43FF2E9)	-0.211	0.978	0.033	-0.427	0.122	0.488	86.61	11.66	-6.28	12.740	-63.210	-10.878	0.71890	0.68542	0.03644	-0.10919	21.6	13111	100
2025-3-19 12:54:37.492	WT901BLE68(490AABDC0D29)	0.098	0.980	-0.120	-2.625	-1.648	0.183	92.75	-5.59	-176.84	-9.898	-39.102	56.644	0.05426	-0.01352	-0.72379	-0.68768	20.3	13111	100
2025-3-19 12:54:37.528	WT901BLE68(E947F43FF2E9)	-0.213	0.976	0.032	-1.038	-0.061	0.183	86.63	11.67	-6.30	12.740	-63.210	-10.878	0.71890	0.68542	0.03644	-0.10919	21.6	13111	100
2025-3-19 12:54:37.617	WT901BLE68(490AABDC0D29)	0.100	0.980	-0.122	-2.686	-1.770	0.000	92.76	-5.60	-176.85	-9.898	-39.102	56.644	0.05426	-0.01376	-0.72372	-0.68774	20.3	13111	100
2025-3-19 12:54:37.625	WT901BLE68(E947F43FF2E9)	-0.213	0.976	0.036	-1.221	-0.183	0.366	86.59	11.68	-6.32	12.740	-63.210	-10.878	0.71890	0.68542	0.03644	-0.10919	21.6	13111	100
2025-3-19 12:54:37.701	WT901BLE68(490AABDC0D29)	0.098	0.981	-0.124	-2.808	-1.953	-0.122	92.77	-5.58	-176.85	-9.898	-39.102	56.644	0.05426	-0.01376	-0.72372	-0.68774	20.3	13111	100
2025-3-19 12:54:37.744	WT901BLE68(E947F43FF2E9)	-0.210	0.976	0.035	-0.549	0.305	0.549	86.60	11.67	-6.33	12.740	-63.210	-10.878	0.71890	0.68542	0.03644	-0.10919	21.6	13111	100
2025-3-19 12:54:37.797	WT901BLE68(E947F43FF2E9)	-0.210	0.977	0.033	-0.610	0.488	0.488	86.64	11.65	-6.30	12.740	-63.210	-10.878	0.71881	0.68555	0.03622	-0.10925	21.6	13111	100
2025-3-19 12:54:37.821	WT901BLE68(490AABDC0D29)	0.101	0.981	-0.120	-2.991	-1.587	0.000	92.74	-5.57	-176.84	-9.800	-39.102	56.546	0.05426	-0.01376	-0.72372	-0.68774	20.3	13111	100
2025-3-19 12:54:37.881	WT901BLE68(490AABDC0D29)	0.107	0.981	-0.122	-3.601	-0.427	0.000	92.69	-5.56	-176.79	-9.800	-39.102	56.546	0.05426	-0.01376	-0.72372	-0.68774	20.3	13111	100
2025-3-19 12:54:37.919	WT901BLE68(E947F43FF2E9)	-0.211	0.975	0.035	-1.099	0.610	0.183	86.62	11.66	-6.31	12.740	-63.210	-10.878	0.71881	0.68555	0.03622	-0.10925	21.6	13111	100
2025-3-19 12:54:38.6	WT901BLE68(E947F43FF2E9)	-0.166	0.978	0.035	-1.038	0.122	0.366	86.60	11.67	-6.28	12.740	-63.210	-10.878	0.71881	0.68555	0.03622	-0.10925	21.6	13111	100
2025-3-19 12:54:38.31	WT901BLE68(490AABDC0D29)	0.139	0.994	-0.107	-3.296	-3.906	-1.160	92.59	-5.52	-176.68	-9.800	-39.102	56.546	0.05444	-0.01245	-0.72272	-0.68881	20.3	13111	100
2025-3-19 12:54:38.91	WT901BLE68(490AABDC0D29)	0.125	0.968	-0.150	-6.592	15.747	-1.587	92.16	-5.31	-175.83	-9.800	-39.102	56.546	0.05444	-0.01245	-0.72272	-0.68881	20.3	13111	100
2025-3-19 12:54:38.129	WT901BLE68(E947F43FF2E9)	-0.241	1.002	0.038	6.165	6.775	-3.052	86.89	11.85	-5.78	12.740	-63.210	-10.878	0.71881	0.68555	0.03622	-0.10925	21.6	13111	100
2025-3-19 12:54:38.210	WT901BLE68(490AABDC0D29)	0.205	0.967	-0.103	0.671	47.546	2.075	91.69	-5.70	-172.05	-11.270	-39.200	56.154	0.05444	-0.01245	-0.72272	-0.68881	20.3	13111	100
2025-3-19 12:54:38.219	WT901BLE68(E947F43FF2E9)	-0.203	0.967	-0.051	20.264	-26.855	8.362	88.29	11.68	-5.99	12.740	-63.210	-10.878	0.70450	0.69995	0.02689	-0.11371	21.6	13111	100
2025-3-19 12:54:38.301	WT901BLE68(490AABDC0D29)	-0.046	0.967	-0.111	1.465	35.034	15.259	91.94	-6.81	-168.88	-11.270	-39.200	56.154	0.05444	-0.01245	-0.72272	-0.68881	20.3	13111	100
2025-3-19 12:54:38.343	WT901BLE68(E947F43FF2E9)	-0.191	0.921	0.060	8.118	-3.723	4.272	89.54	11.09	-8.20	12.740	-63.210	-10.878	0.70450	0.69995	0.02689	-0.11371	21.6	13111	100
2025-3-19 12:54:38.398	WT901BLE68(E947F43FF2E9)	-0.196	1.013	-0.022	-7.324	-3.296	2.014	89.66	10.86	-7.89	11.760	-63.798	-8.428	0.70450	0.69995	0.02689	-0.11371	21.6	13111	100
2025-3-19 12:54:38.422	WT901BLE68(490AABDC0D29)	0.167	0.993	-0.064	-3.357	-14.282	12.268	91.71	-8.37	-167.45	-11.270	-39.200	56.154	0.12488	0.02307	-0.71738	-0.68494	20.3	13111	100
2025-3-19 12:54:38.510	WT901BLE68(490AABDC0D29)	0.173	0.924	-0.066	-4.456	-8.301	5.554	91.75	-8.72	-168.96	-11.270	-39.200	56.154	0.12488	0.02307	-0.71738	-0.68494	20.3	13111	100
2025-3-19 12:54:38.520	WT901BLE68(E947F43FF2E9)	-0.218	0.977	-0.001	-0.671	2.808	-4.333	89.26	11.01	-7.68	11.760	-63.798	-8.428	0.70450	0.69995	0.02689	-0.11371	21.6	13111	100
2025-3-19 12:54:38.607	WT901BLE68(E947F43FF2E9)	-0.195	0.974	-0.012	0.000	5.493	-0.793	89.54	11.26	-6.90	11.760	-63.798	-8.428	0.70071	0.70407	0.02780	-0.11130	21.6	13111	100
2025-3-19 12:54:38.632	WT901BLE68(490AABDC0D29)	0.204	0.992	-0.013	2.808	-32.349	13.245	92.39	-9.48	-171.26	-14.994	-38.612	56.644	0.12488	0.02307	-0.71738	-0.68494	20.3	13111	100
2025-3-19 12:54:38.692	WT901BLE68(490AABDC0D29)	0.213	0.947	-0.252	9.521	-10.010	5.249	93.53	-10.22	-173.72	-14.994	-38.612	56.644	0.12488	0.02307	-0.71738	-0.68494	20.3	13111	100
2025-3-19 12:54:38.729	WT901BLE68(E947F43FF2E9)	-0.200	0.976	-0.019	2.991	-1.892	-0.122	89.76	11.30	-6.94	11.760	-63.798	-8.428	0.70071	0.70407	0.02780	-0.11130	21.6	13111	100
2025-3-19 12:54:38.811	WT901BLE68(490AABDC0D29)	0.212	0.944	-0.132	-13.733	-6.470	10.498	93.87	-10.78	-174.40	-14.994	-38.612	56.644	0.10205	-0.03015	-0.72873	-0.67642	20.3	13111	100
2025-3-19 12:54:38.818	WT901BLE68(E947F43FF2E9)	-0.217	0.978	-0.032	7.019	4.456	-3.906	90.43	11.58	-6.91	12.544	-63.994	-7.546	0.70071	0.70407	0.02780	-0.11130	21.6	13111	100
2025-3-19 12:54:38.902	WT901BLE68(490AABDC0D29)	0.197	0.938	-0.102	-15.930	-3.052	4.089	92.82	-11.53	-174.77	-14.994	-38.612	56.644	0.10205	-0.03015	-0.72873	-0.67642	20.3	13111	100
2025-3-19 12:54:38.947	WT901BLE68(E947F43FF2E9)	-0.224	0.981	-0.042	6.592	7.141	-4.272	91.27	11.95	-5.99	12.544	-63.994	-7.546	0.70071	0.70407	0.02780	-0.11130	21.6	13111	100
2025-3-19 12:54:39.19	WT901BLE68(490AABDC0D29)	0.218	0.961	-0.125	-21.667	-10.925	1.587	91.61	-11.72	-175.80	-15.288	-39.102	55.664	0.10205	-0.03015	-0.72873	-0.67642	20.3	13111	100
2025-3-19 12:54:39.28	WT901BLE68(E947F43FF2E9)	-0.227	0.946	-0.057	2.075	-2.563	-3.052	91.38	12.30	-5.97	12.544	-63.994	-7.546	0.68839	0.71539	0.03802	-0.11307	21.6	13111	100
2025-3-19 12:54:39.109	WT901BLE68(490AABDC0D29)	0.230	0.968	-0.059	-18.921	1.282	1.404	90.03	-11.84	-176.02	-15.288	-39.102	55.664	0.10205	-0.03015	-0.72873	-0.67642	20.3	13111	100
2025-3-19 12:54:39.151	WT901BLE68(E947F43FF2E9)	-0.240	0.975	-0.060	0.793	0.122	1.221	91.68	12.34	-5.94	12.544	-63.994	-7.546	0.68839	0.71539	0.03802	-0.11307	21.6	13111	100
2025-3-19 12:54:39.230	WT901BLE68(490AABDC0D29)	0.225	0.970	-0.035	-8.423	-6.409	1.221	89.12	-12.01	-176.31	-15.288	-39.102	55.664	0.09558	-0.05313	-0.69901	-0.70663	20.3	13111	100
2025-3-19 12:54:39.248	WT901BLE68(E947F43FF2E9)	-0.197	0.982	-0.050	-10.986	-2.625	1.343	91.24	12.26	-6.03	13.328	-63.994	-7.252	0.68839	0.71539	0.03802	-0.11307	21.6	13111	100
2025-3-19 12:54:39.291	WT901BLE68(490AABDC0D29)	0.224	0.968	-0.026	-2.930	2.502	-2.014	88.81	-12.01	-176.40	-15.288	-39.102	55.664	0.09558	-0.05313	-0.69901	-0.70663	20.3	13111	100
2025-3-19 12:54:39.334	WT901BLE68(E947F43FF2E9)	-0.264	0.961	-0.021	-5.920	1.221	-1.648	90.34	12.25	-6.28	13.328	-63.994	-7.252	0.68839	0.71539	0.03802	-0.11307	21.6	13111	100
2025-3-19 12:54:39.411	WT901BLE68(490AABDC0D29)	0.205	0.970	-0.054	-0.427	1.160	-2.502	88.95	-11.89	-175.96	-15.582	-40.082	53.116	0.09558	-0.05313	-0.69901	-0.70663	20.3	13111	100
2025-3-19 12:54:39.447	WT901BLE68(E947F43FF2E9)	-0.220	0.951	-0.023	7.446	-1.099	0.488	90.79	12.55	-5.64	13.328	-63.994	-7.252	0.69150	0.71231	0.04001	-0.11301	21.6	13111	100
2025-3-19 12:54:39.501	WT901BLE68(490AABDC0D29)	0.189	0.985	-0.043	1.831	2.747	-7.202	89.14	-11.45	-175.52	-15.582	-40.082	53.116	0.09558	-0.05313	-0.69901	-0.70663	20.3	13111	100
2025-3-19 12:54:39.539	WT901BLE68(E947F43FF2E9)	-0.206	0.977	-0.057	-0.610	-3.418	11.597	91.33	12.05	-6.72	13.328	-63.994	-7.252	0.69150	0.71231	0.04001	-0.11301	21.6	13111	100
2025-3-19 12:54:39.619	WT901BLE68(490AABDC0D29)	0.157	0.972	-0.052	2.991	7.385	-11.841	89.49	-10.46	-175.14	-15.582	-40.082	53.116	0.09375	-0.03247	-0.70383	-0.70334	20.3	13111	100
2025-3-19 12:54:39.633	WT901BLE68(E947F43FF2E9)	-0.174	0.957	-0.057	1.038	-6.775	13.245	91.09	10.94	-7.51	11.760	-63.896	-7.154	0.69150	0.71231	0.04001	-0.11301	21.6	13111	100
2025-3-19 12:54:39.711	WT901BLE68(490AABDC0D29)	0.133	1.005	-0.080	5.981	4.272	-13.184	90.21	-9.45	-174.13	-15.582	-40.082	53.116	0.09375	-0.03247	-0.70383	-0.70334	20.3	13111	100
2025-3-19 12:54:39.748	WT901BLE68(E947F43FF2E9)	-0.125	0.983	-0.030	-0.977	1.892	16.907	91.26	9.55	-8.32	11.760	-63.896	-7.154	0.69150	0.71231	0.04001	-0.11301	21.6	13111	100
2025-3-19 12:54:39.809	WT901BLE68(E947F43FF2E9)	-0.156	0.985	-0.062	-6.226	-3.662	8.789	91.07	8.27	-7.99	11.760	-63.896	-7.154	0.69568	0.71152	-0.00101	-0.09839	21.6	13111	100
2025-3-19 12:54:39.835	WT901BLE68(490AABDC0D29)	0.112	0.980	-0.098	-1.038	3.601	-14.832	90.50	-7.94	-173.97	-12.838	-39.494	54.978	0.09375	-0.03247	-0.70383	-0.70334	20.3	13111	100
2025-3-19 12:54:39.922	WT901BLE68(490AABDC0D29)	0.101	0.977	-0.076	-5.859	0.977	-11.292	90.33	-6.75	-173.58	-12.838	-39.494	54.978	0.09375	-0.03247	-0.70383	-0.70334	20.3	13111	100
2025-3-19 12:54:39.935	WT901BLE68(E947F43FF2E9)	-0.117	0.987	-0.012	-2.808	4.395	2.625	90.47	7.78	-7.73	11.760	-63.896	-7.154	0.69568	0.71152	-0.00101	-0.09839	21.6	13111	100
2025-3-19 12:54:40.16	WT901BLE68(E947F43FF2E9)	-0.180	0.970	-0.028	-4.883	-2.563	-5.127	90.22	7.89	-6.75	9.604	-63.504	-7.938	0.69568	0.71152	-0.00101	-0.09839	21.6	13111	100
2025-3-19 12:54:40.41	WT901BLE68(490AABDC0D29)	0.126	0.983	-0.079	-12.756	1.770	-8.484	89.63	-5.81	-173.53	-12.838	-39.494	54.978	0.07663	0.00586	-0.70361	-0.70633	20.3	13111	100
2025-3-19 12:54:40.101	WT901BLE68(490AABDC0D29)	0.124	1.036	-0.075	-1.099	24.292	-3.540	89.39	-5.66	-172.12	-12.838	-39.494	54.978	0.07663	0.00586	-0.70361	-0.70633	20.3	13111	100
2025-3-19 12:54:40.138	WT901BLE68(E947F43FF2E9)	-0.152	0.990	-0.024	-10.803	13.855	-2.625	89.62	8.28	-5.51	9.604	-63.504	-7.938	0.69568	0.71152	-0.00101	-0.09839	21.6	13111	100
2025-3-19 12:54:40.229	WT901BLE68(490AABDC0D29)	-0.271	0.863	-0.438	24.902	91.919	-26.123	90.33	-4.54	-167.00	-12.740	-39.494	55.370	0.07663	0.00586	-0.70361	-0.70633	20.3	13111	100
2025-3-19 12:54:40.229	WT901BLE68(E947F43FF2E9)	-0.095	0.985	-0.024	-7.751	7.263	12.390	88.98	7.85	-4.20	9.604	-63.504	-7.938	0.71124	0.69885	0.02234	-0.07162	21.6	13111	100
2025-3-19 12:54:40.312	WT901BLE68(490AABDC0D29)	0.068	1.088	0.369	-10.132	-6.531	-5.066	91.77	-2.70	-157.53	-12.740	-39.494	55.370	0.07663	0.00586	-0.70361	-0.70633	20.3	13111	100
2025-3-19 12:54:40.349	WT901BLE68(E947F43FF2E9)	0.008	0.975	-0.010	-8.423	-17.883	-2.686	88.02	7.53	-4.47	9.604	-63.504	-7.938	0.71124	0.69885	0.02234	-0.07162	21.6	13111	100
2025-3-19 12:54:40.437	WT901BLE68(E947F43FF2E9)	-0.117	1.324	-0.057	-33.936	-10.986	-54.443	86.16	9.38	-4.89	12.250	-62.916	-11.858	0.71124	0.69885	0.02234	-0.07162	21.6	13111	100
2025-3-19 12:54:40.462	WT901BLE68(490AABDC0D29)	0.009	0.969	-0.068	0.488	-11.719	9.216	91.64	-3.32	-160.39	-12.740	-39.494	55.370	0.13837	0.09927	-0.71060	-0.68259	20.3	13111	100
2025-3-19 12:54:40.522	WT901BLE68(490AABDC0D29)	0.097	0.992	-0.117	0.000	7.629	-6.836	92.15	-3.65	-160.68	-12.740	-39.494	55.370	0.13837	0.09927	-0.71060	-0.68259	20.3	13111	100
2025-3-19 12:54:40.558	WT901BLE68(E947F43FF2E9)	0.245	1.036	-0.094	-52.856	-2.930	-102.234	81.20	18.37	-3.64	12.250	-62.916	-11.858	0.71124	0.69885	0.02234	-0.07162	21.6	13111	100
2025-3-19 12:54:40.619	WT901BLE68(E947F43FF2E9)	0.001	0.483	-0.216	23.193	92.285	96.008	84.61	19.22	8.72	12.250	-62.916	-11.858	0.71542	0.68448	0.13898	0.01428	21.6	13111	100
2025-3-19 12:54:40.641	WT901BLE68(490AABDC0D29)	0.094	0.993	-0.116	-7.568	2.747	5.371	92.15	-3.71	-161.04	-14.994	-38.416	56.938	0.13837	0.09927	-0.71060	-0.68259	20.3	13111	100
2025-3-19 12:54:40.699	WT901BLE68(490AABDC0D29)	0.096	0.985	-0.086	-8.728	11.536	6.836	91.59	-4.30	-160.78	-14.994	-38.416	56.938	0.13837	0.09927	-0.71060	-0.68259	20.3	13111	100
2025-3-19 12:54:40.742	WT901BLE68(E947F43FF2E9)	-1.373	1.155	-0.080	86.426	-13.367	199.341	92.37	1.22	12.94	12.250	-62.916	-11.858	0.71542	0.68448	0.13898	0.01428	21.6	13111	100
2025-3-19 12:54:40.821	WT901BLE68(490AABDC0D29)	0.250	1.012	-0.152	-15.625	10.132	26.794	90.63	-5.91	-159.76	-14.994	-38.416	56.938	0.16846	0.08176	-0.70236	-0.68665	20.3	13111	100
2025-3-19 12:54:40.838	WT901BLE68(E947F43FF2E9)	-0.491	1.216	0.201	25.757	63.843	86.304	99.48	-13.75	14.14	-1.470	-59.976	-3.724	0.71542	0.68448	0.13898	0.01428	21.6	13111	100
2025-3-19 12:54:40.910	WT901BLE68(490AABDC0D29)	0.111	1.086	-0.100	-29.785	0.732	59.448	88.74	-9.96	-159.51	-14.994	-38.416	56.938	0.16846	0.08176	-0.70236	-0.68665	20.3	13111	100
2025-3-19 12:54:40.947	WT901BLE68(E947F43FF2E9)	-0.328	1.181	0.544	-1.831	60.791	-103.210	99.00	-7.31	14.27	-1.470	-59.976	-3.724	0.71542	0.68448	0.13898	0.01428	21.6	13111	100
2025-3-19 12:54:41.39	WT901BLE68(490AABDC0D29)	0.239	1.422	-0.104	-40.833	35.706	107.178	85.61	-16.91	-156.99	-26.754	-38.318	51.940	0.16846	0.08176	-0.70236	-0.68665	20.3	13111	100
2025-3-19 12:54:41.40	WT901BLE68(E947F43FF2E9)	-0.040	1.059	-0.105	-3.540	15.015	-55.969	98.87	0.09	19.29	-1.470	-59.976	-3.724	0.64975	0.74561	0.12479	0.07870	21.6	13111	100
2025-3-19 12:54:41.120	WT901BLE68(490AABDC0D29)	-0.136	0.901	-0.157	-33.142	59.265	101.379	79.32	-26.85	-149.86	-26.754	-38.318	51.940	0.16846	0.08176	-0.70236	-0.68665	20.3	13111	100
2025-3-19 12:54:41.158	WT901BLE68(E947F43FF2E9)	-0.099	0.980	-0.136	1.038	31.250	-27.588	98.22	3.29	17.67	-1.470	-59.976	-3.724	0.64975	0.74561	0.12479	0.07870	21.6	13111	100
2025-3-19 12:54:41.217	WT901BLE68(E947F43FF2E9)	-0.045	1.007	-0.108	5.432	-21.973	-18.494	98.57	5.60	17.96	11.074	-62.818	-4.410	0.64975	0.74561	0.12479	0.07870	21.6	13111	100
2025-3-19 12:54:41.242	WT901BLE68(490AABDC0D29)	-0.114	0.315	0.006	2.380	34.668	-9.155	74.96	-29.85	-142.20	-26.754	-38.318	51.940	0.39011	0.00858	-0.62476	-0.67624	20.3	13111	100
2025-3-19 12:54:41.341	WT901BLE68(490AABDC0D29)	0.011	0.707	-0.000	48.523	-38.513	-143.555	80.63	-19.46	-146.33	-26.754	-38.318	51.940	0.39011	0.00858	-0.62476	-0.67624	20.3	13111	100
2025-3-19 12:54:41.341	WT901BLE68(E947F43FF2E9)	-0.184	0.958	-0.143	-0.671	-6.897	-24.902	98.70	7.92	17.42	11.074	-62.818	-4.410	0.64975	0.74561	0.12479	0.07870	21.6	13111	100
2025-3-19 12:54:41.426	WT901BLE68(E947F43FF2E9)	-0.234	0.976	-0.129	-8.606	-3.784	-28.564	98.12	10.45	18.09	11.074	-62.818	-4.410	0.65964	0.72739	0.18704	0.02679	21.6	13111	100
2025-3-19 12:54:41.451	WT901BLE68(490AABDC0D29)	0.262	1.339	0.038	65.552	-16.541	-199.036	88.49	-1.33	-151.56	-19.404	-40.180	51.254	0.39011	0.00858	-0.62476	-0.67624	20.3	13111	100
2025-3-19 12:54:41.509	WT901BLE68(490AABDC0D29)	0.415	1.458	0.254	50.537	-34.973	-134.460	94.42	15.88	-153.18	-19.404	-40.180	51.254	0.39011	0.00858	-0.62476	-0.67624	20.3	13111	100
2025-3-19 12:54:41.546	WT901BLE68(E947F43FF2E9)	-0.226	0.967	-0.127	-12.268	-4.089	-25.940	97.07	12.99	18.38	11.074	-62.818	-4.410	0.65964	0.72739	0.18704	0.02679	21.6	13111	100
2025-3-19 12:54:41.630	WT901BLE68(490AABDC0D29)	0.036	1.181	0.211	-24.414	-47.668	90.881	92.84	15.27	-160.01	-19.404	-40.180	51.254	0.02783	0.16315	-0.69437	-0.70026	20.3	13111	100
2025-3-19 12:54:41.642	WT901BLE68(E947F43FF2E9)	-0.242	1.041	-0.110	-20.630	-16.113	-41.077	95.53	15.84	17.92	20.482	-62.328	-6.860	0.65964	0.72739	0.18704	0.02679	21.6	13111	100
2025-3-19 12:54:41.721	WT901BLE68(490AABDC0D29)	0.053	0.928	-0.217	21.606	-51.392	82.947	91.25	5.53	-168.29	-19.404	-40.180	51.254	0.02783	0.16315	-0.69437	-0.70026	20.3	13111	100
2025-3-19 12:54:41.756	WT901BLE68(E947F43FF2E9)	-0.160	1.417	-0.185	-20.325	-41.504	-94.849	92.76	21.60	16.73	20.482	-62.328	-6.860	0.65964	0.72739	0.18704	0.02679	21.6	13111	100
2025-3-19 12:54:41.838	WT901BLE68(490AABDC0D29)	0.063	0.991	-0.071	0.732	-7.019	35.889	91.49	-0.17	-170.05	-10.094	-39.004	56.938	0.02783	0.16315	-0.69437	-0.70026	20.3	13111	100
2025-3-19 12:54:41.848	WT901BLE68(E947F43FF2E9)	0.264	0.838	-0.093	-13.916	-116.943	-101.807	87.63	32.50	10.29	20.482	-62.328	-6.860	0.71561	0.63705	0.23007	-0.17032	21.6	13111	100
2025-3-19 12:54:41.948	WT901BLE68(490AABDC0D29)	0.065	0.991	-0.139	-4.761	9.460	15.991	91.75	-2.76	-170.03	-10.094	-39.004	56.938	0.02783	0.16315	-0.69437	-0.70026	20.3	13111	100
2025-3-19 12:54:41.969	WT901BLE68(E947F43FF2E9)	-0.193	0.471	-0.107	53.772	-26.062	134.583	85.72	30.11	3.75	20.482	-62.328	-6.860	0.71561	0.63705	0.23007	-0.17032	21.6	13111	100
2025-3-19 12:54:42.27	WT901BLE68(E947F43FF2E9)	-1.496	1.082	0.013	83.679	25.269	197.754	94.93	11.80	9.06	10.976	-62.034	-3.038	0.71561	0.63705	0.23007	-0.17032	21.6	13111	100
2025-3-19 12:54:42.80	WT901BLE68(490AABDC0D29)	0.151	0.984	-0.107	-8.606	-3.113	23.743	91.29	-4.54	-169.85	-10.094	-39.004	56.938	0.09418	0.03033	-0.71341	-0.69366	20.3	13111	100
2025-3-19 12:54:42.108	WT901BLE68(490AABDC0D29)	0.190	0.990	-0.106	-12.146	-2.319	36.682	90.65	-7.53	-170.19	-10.094	-39.004	56.938	0.09418	0.03033	-0.71341	-0.69366	20.3	13111	100
2025-3-19 12:54:42.147	WT901BLE68(E947F43FF2E9)	1.143	1.413	0.352	75.500	-140.198	144.592	104.75	-5.88	0.17	10.976	-62.034	-3.038	0.71561	0.63705	0.23007	-0.17032	21.6	13111	100
2025-3-19 12:54:42.231	WT901BLE68(490AABDC0D29)	0.076	1.129	-0.133	-18.433	1.099	64.331	89.58	-11.89	-170.16	-19.992	-39.004	54.880	0.09418	0.03033	-0.71341	-0.69366	20.3	13111	100
2025-3-19 12:54:42.244	WT901BLE68(E947F43FF2E9)	-0.056	1.250	-0.136	8.301	136.353	-27.771	108.65	-3.33	-14.80	10.976	-62.034	-3.038	0.58878	0.79913	-0.09866	-0.06992	21.6	13111	100
2025-3-19 12:54:42.320	WT901BLE68(490AABDC0D29)	-1.002	1.705	-0.100	-44.373	6.958	157.471	86.75	-21.52	-168.56	-19.992	-39.004	54.880	0.09418	0.03033	-0.71341	-0.69366	20.3	13111	100
2025-3-19 12:54:42.356	WT901BLE68(E947F43FF2E9)	-0.105	1.028	-0.121	-20.325	-10.254	-26.367	106.44	1.22	-15.46	10.976	-62.034	-3.038	0.58878	0.79913	-0.09866	-0.06992	21.6	13111	100
2025-3-19 12:54:42.446	WT901BLE68(490AABDC0D29)	-0.104	0.129	0.142	-60.303	-73.975	-3.296	78.99	-31.70	-165.96	-19.992	-39.004	54.880	0.20493	-0.13242	-0.63251	-0.73505	20.3	13111	100
2025-3-19 12:54:42.447	WT901BLE68(E947F43FF2E9)	-0.083	0.999	-0.158	-18.372	-3.845	-21.790	104.29	4.14	-18.18	4.214	-61.348	2.842	0.58878	0.79913	-0.09866	-0.06992	21.6	13111	100
2025-3-19 12:54:42.532	WT901BLE68(490AABDC0D29)	2.007	0.938	0.080	-32.166	-91.064	-240.356	79.67	-16.05	-176.81	-19.992	-39.004	54.880	0.20493	-0.13242	-0.63251	-0.73505	20.3	13111	100
2025-3-19 12:54:42.569	WT901BLE68(E947F43FF2E9)	-0.142	0.979	-0.143	-21.606	-7.874	-5.981	101.98	5.64	-19.63	4.214	-61.348	2.842	0.58878	0.79913	-0.09866	-0.06992	21.6	13111	100
2025-3-19 12:54:42.629	WT901BLE68(E947F43FF2E9)	-0.191	0.999	-0.122	-36.499	-7.446	-10.437	98.99	6.52	-19.55	4.214	-61.348	2.842	0.64297	0.74353	-0.09082	-0.15927	21.6	13111	100
2025-3-19 12:54:42.650	WT901BLE68(490AABDC0D29)	0.339	1.475	-0.682	-22.156	-204.407	-64.148	80.57	-0.08	161.97	-5.684	-41.944	47.432	0.20493	-0.13242	-0.63251	-0.73505	20.3	13111	100
2025-3-19 12:54:42.748	WT901BLE68(490AABDC0D29)	0.150	1.252	0.271	20.447	-0.610	23.438	81.91	-5.36	151.83	-5.684	-41.944	47.432	0.20493	-0.13242	-0.63251	-0.73505	20.3	13111	100
2025-3-19 12:54:42.749	WT901BLE68(E947F43FF2E9)	-0.024	1.055	-0.039	-20.020	-29.602	16.113	95.63	6.67	-21.83	4.214	-61.348	2.842	0.64297	0.74353	-0.09082	-0.15927	21.6	13111	100
2025-3-19 12:54:42.848	WT901BLE68(E947F43FF2E9)	-0.070	1.029	-0.092	4.211	-107.361	57.190	94.27	3.44	-29.33	0.882	-60.760	0.392	0.64297	0.74353	-0.09082	-0.15927	21.6	13111	100
2025-3-19 12:54:42.861	WT901BLE68(490AABDC0D29)	0.085	1.010	-0.042	27.405	-18.494	1.465	86.15	-7.86	151.36	-5.684	-41.944	47.432	-0.13297	-0.22079	-0.65451	-0.71069	20.3	13111	100
2025-3-19 12:54:42.919	WT901BLE68(490AABDC0D29)	0.100	1.022	-0.089	13.855	-15.625	1.770	89.02	-8.26	151.14	-5.684	-41.944	47.432	-0.13297	-0.22079	-0.65451	-0.71069	20.3	13111	100
2025-3-19 12:54:42.956	WT901BLE68(E947F43FF2E9)	-0.241	0.952	-0.037	2.747	-166.565	53.772	94.50	-0.89	-44.90	0.882	-60.760	0.392	0.64297	0.74353	-0.09082	-0.15927	21.6	13111	100
2025-3-19 12:54:43.46	WT901BLE68(490AABDC0D29)	0.130	1.000	-0.106	4.150	-9.094	13.489	89.96	-8.82	151.59	-3.724	-41.258	51.156	-0.13297	-0.22079	-0.65451	-0.71069	20.3	13111	100
2025-3-19 12:54:43.49	WT901BLE68(E947F43FF2E9)	0.298	0.923	-0.024	6.226	-203.003	0.122	95.76	-0.37	-65.07	0.882	-60.760	0.392	0.50104	0.57700	-0.46857	-0.44315	21.6	13111	100
2025-3-19 12:54:43.130	WT901BLE68(490AABDC0D29)	0.130	0.981	-0.133	4.700	-37.109	7.324	90.94	-9.78	151.44	-3.724	-41.258	51.156	-0.13297	-0.22079	-0.65451	-0.71069	20.3	13111	100
2025-3-19 12:54:43.166	WT901BLE68(E947F43FF2E9)	0.259	1.039	0.060	-10.132	-92.102	-31.006	95.60	3.63	-84.89	0.882	-60.760	0.392	0.50104	0.57700	-0.46857	-0.44315	21.6	13111	100
2025-3-19 12:54:43.251	WT901BLE68(490AABDC0D29)	0.134	0.986	-0.123	-7.385	-17.090	5.920	91.22	-10.21	150.75	-3.724	-41.258	51.156	-0.11325	-0.23978	-0.67090	-0.69241	20.3	13111	100
2025-3-19 12:54:43.259	WT901BLE68(E947F43FF2E9)	-0.008	1.105	-0.156	7.080	31.250	21.545	94.63	3.87	-87.01	1.960	-60.564	13.034	0.50104	0.57700	-0.46857	-0.44315	21.6	13111	100
2025-3-19 12:54:43.351	WT901BLE68(490AABDC0D29)	0.137	0.979	-0.106	-9.338	-22.827	0.305	90.62	-10.36	150.85	-3.724	-41.258	51.156	-0.11325	-0.23978	-0.67090	-0.69241	20.3	13111	100
2025-3-19 12:54:43.378	WT901BLE68(E947F43FF2E9)	0.037	0.949	-0.096	16.052	-52.002	18.250	94.63	2.22	-96.94	1.960	-60.564	13.034	0.50104	0.57700	-0.46857	-0.44315	21.6	13111	100
2025-3-19 12:54:43.451	WT901BLE68(E947F43FF2E9)	0.128	0.980	-0.030	5.981	-2.686	2.197	95.19	1.21	-105.06	1.960	-60.564	13.034	0.39114	0.43985	-0.59369	-0.54861	21.6	13111	100
2025-3-19 12:54:43.461	WT901BLE68(490AABDC0D29)	0.128	0.970	-0.122	-10.559	-16.907	-1.953	90.39	-9.84	149.79	-3.038	-41.650	49.196	-0.11325	-0.23978	-0.67090	-0.69241	20.3	13111	100
2025-3-19 12:54:43.520	WT901BLE68(490AABDC0D29)	0.127	0.972	-0.091	-13.733	4.822	2.808	89.62	-9.68	150.49	-3.038	-41.650	49.196	-0.11325	-0.23978	-0.67090	-0.69241	20.3	13111	100
2025-3-19 12:54:43.558	WT901BLE68(E947F43FF2E9)	0.103	1.086	-0.036	3.113	-6.531	-12.817	95.34	1.17	-110.23	1.960	-60.564	13.034	0.39114	0.43985	-0.59369	-0.54861	21.6	13111	100
2025-3-19 12:54:43.639	WT901BLE68(490AABDC0D29)	0.146	0.993	-0.086	-7.751	0.793	-1.221	88.92	-9.51	152.09	-3.038	-41.650	49.196	-0.11243	-0.22153	-0.66342	-0.70572	20.3	13111	100
2025-3-19 12:54:43.647	WT901BLE68(E947F43FF2E9)	0.299	0.899	-0.047	-15.625	21.423	-36.987	93.75	4.39	-115.71	4.508	-61.054	14.210	0.39114	0.43985	-0.59369	-0.54861	21.6	13111	100
2025-3-19 12:54:43.736	WT901BLE68(490AABDC0D29)	0.151	0.977	-0.046	-10.254	2.563	-0.732	88.39	-9.29	153.68	-3.038	-41.650	49.196	-0.11243	-0.22153	-0.66342	-0.70572	20.3	13111	100
2025-3-19 12:54:43.769	WT901BLE68(E947F43FF2E9)	-0.357	0.949	0.131	-24.475	71.838	44.922	91.32	3.58	-116.09	4.508	-61.054	14.210	0.39114	0.43985	-0.59369	-0.54861	21.6	13111	100
2025-3-19 12:54:43.851	WT901BLE68(490AABDC0D29)	0.126	1.003	-0.060	-10.559	14.526	1.587	87.58	-9.11	155.57	-3.136	-42.434	46.648	-0.11243	-0.22153	-0.66342	-0.70572	20.3	13111	100
2025-3-19 12:54:43.859	WT901BLE68(E947F43FF2E9)	0.088	1.015	-0.042	-23.682	213.806	-8.667	88.98	0.99	-107.53	4.508	-61.054	14.210	0.46982	0.48657	-0.49219	-0.54788	21.6	13111	100
2025-3-19 12:54:43.939	WT901BLE68(490AABDC0D29)	0.126	1.014	-0.029	-19.104	14.038	-3.357	86.45	-8.85	158.36	-3.136	-42.434	46.648	-0.11243	-0.22153	-0.66342	-0.70572	20.3	13111	100
2025-3-19 12:54:43.977	WT901BLE68(E947F43FF2E9)	-0.201	0.924	-0.509	-9.949	119.751	-40.955	87.50	5.79	-89.23	4.508	-61.054	14.210	0.46982	0.48657	-0.49219	-0.54788	21.6	13111	100
2025-3-19 12:54:44.38	WT901BLE68(E947F43FF2E9)	-0.134	1.027	-0.007	17.822	41.382	-31.189	89.85	9.87	-79.10	4.410	-62.034	0.882	0.46982	0.48657	-0.49219	-0.54788	21.6	13111	100
2025-3-19 12:54:44.62	WT901BLE68(490AABDC0D29)	0.073	1.026	0.016	-30.273	4.272	-15.381	84.25	-7.84	160.50	-3.136	-42.434	46.648	-0.08301	-0.14975	-0.64377	-0.74573	20.3	13111	100
2025-3-19 12:54:44.151	WT901BLE68(490AABDC0D29)	0.490	1.026	-0.188	-13.062	31.921	-34.180	81.83	-5.20	162.98	-3.136	-42.434	46.648	-0.08301	-0.14975	-0.64377	-0.74573	20.3	13111	100
2025-3-19 12:54:44.158	WT901BLE68(E947F43FF2E9)	-0.042	1.061	0.023	21.423	20.264	5.859	93.08	10.66	-73.87	4.410	-62.034	0.882	0.46982	0.48657	-0.49219	-0.54788	21.6	13111	100
2025-3-19 12:54:44.246	WT901BLE68(E947F43FF2E9)	-0.120	1.018	-0.094	19.287	13.306	3.845	95.26	9.77	-73.10	4.410	-62.034	0.882	0.50400	0.63721	-0.38702	-0.43597	21.6	13111	100
2025-3-19 12:54:44.271	WT901BLE68(490AABDC0D29)	0.047	0.887	-0.272	12.207	115.540	-22.278	82.03	-0.88	170.43	-0.490	-42.140	45.374	-0.08301	-0.14975	-0.64377	-0.74573	20.3	13111	100
2025-3-19 12:54:44.337	WT901BLE68(490AABDC0D29)	-0.127	1.012	-0.014	29.175	18.799	17.456	85.55	-1.92	174.40	-0.490	-42.140	45.374	-0.08301	-0.14975	-0.64377	-0.74573	20.3	13111	100
2025-3-19 12:54:44.369	WT901BLE68(E947F43FF2E9)	-0.114	1.000	-0.119	9.094	20.630	-4.761	97.13	9.50	-69.22	4.410	-62.034	0.882	0.50400	0.63721	-0.38702	-0.43597	21.6	13111	100
2025-3-19 12:54:44.449	WT901BLE68(490AABDC0D29)	-0.115	1.074	0.038	25.452	-12.268	21.667	88.16	-3.69	175.68	-0.490	-42.140	45.374	-0.00311	-0.06024	-0.70142	-0.71011	20.3	13111	100
2025-3-19 12:54:44.459	WT901BLE68(E947F43FF2E9)	-0.107	0.998	-0.132	2.441	10.803	-6.958	97.92	9.53	-65.56	4.802	-61.740	3.920	0.50400	0.63721	-0.38702	-0.43597	21.6	13111	100
2025-3-19 12:54:44.539	WT901BLE68(490AABDC0D29)	-0.089	1.014	0.065	28.015	-24.170	13.489	91.07	-5.40	173.63	-0.490	-42.140	45.374	-0.00311	-0.06024	-0.70142	-0.71011	20.3	13111	100
2025-3-19 12:54:44.580	WT901BLE68(E947F43FF2E9)	-0.117	0.985	-0.122	-5.432	19.226	-2.747	98.01	9.58	-61.68	4.802	-61.740	3.920	0.50400	0.63721	-0.38702	-0.43597	21.6	13111	100
2025-3-19 12:54:44.662	WT901BLE68(490AABDC0D29)	-0.103	1.075	0.196	21.423	60.669	-4.150	93.27	-5.10	176.17	-5.488	-39.494	53.802	-0.00311	-0.06024	-0.70142	-0.71011	20.3	13111	100
2025-3-19 12:54:44.669	WT901BLE68(E947F43FF2E9)	-0.098	0.981	-0.111	-7.385	15.625	3.296	97.63	9.10	-57.94	4.802	-61.740	3.920	0.55591	0.68512	-0.30624	-0.35736	21.6	13111	100
2025-3-19 12:54:44.749	WT901BLE68(490AABDC0D29)	-0.056	1.052	0.313	-7.019	46.936	-31.067	92.60	-2.81	-176.85	-5.488	-39.494	53.802	-0.00311	-0.06024	-0.70142	-0.71011	20.3	13111	100
2025-3-19 12:54:44.788	WT901BLE68(E947F43FF2E9)	-0.094	1.000	-0.108	-10.376	10.071	5.737	97.15	8.38	-55.04	4.802	-61.740	3.920	0.55591	0.68512	-0.30624	-0.35736	21.6	13111	100
2025-3-19 12:54:44.847	WT901BLE68(E947F43FF2E9)	-0.018	0.974	-0.128	-7.202	3.052	2.930	96.28	7.63	-52.81	4.116	-61.642	1.176	0.55591	0.68512	-0.30624	-0.35736	21.6	13111	100
2025-3-19 12:54:44.871	WT901BLE68(490AABDC0D29)	0.126	0.989	0.143	-22.400	65.063	-56.396	90.07	1.84	-172.01	-5.488	-39.494	53.802	0.04309	0.11261	-0.68958	-0.71402	20.3	13111	100
2025-3-19 12:54:44.941	WT901BLE68(490AABDC0D29)	0.316	0.981	0.025	-26.855	126.587	-65.430	88.05	8.50	-163.14	-5.488	-39.494	53.802	0.04309	0.11261	-0.68958	-0.71402	20.3	13111	100
2025-3-19 12:54:44.969	WT901BLE68(E947F43FF2E9)	-0.099	0.993	-0.033	-17.151	-8.423	-5.066	95.30	7.73	-51.12	4.116	-61.642	1.176	0.55591	0.68512	-0.30624	-0.35736	21.6	13111	100
2025-3-19 12:54:45.51	WT901BLE68(490AABDC0D29)	-0.338	0.996	-0.367	-30.273	202.942	-44.434	88.49	13.85	-145.61	-7.252	-39.494	56.448	0.04309	0.11261	-0.68958	-0.71402	20.3	13111	100
2025-3-19 12:54:45.88	WT901BLE68(E947F43FF2E9)	-0.081	0.981	-0.148	-38.513	10.864	-20.081	92.83	8.69	-47.03	4.116	-61.642	1.176	0.62625	0.67419	-0.21735	-0.32547	21.6	13111	100
2025-3-19 12:54:45.144	WT901BLE68(490AABDC0D29)	0.101	0.938	-0.340	11.963	27.283	49.133	92.54	10.36	-129.26	-7.252	-39.494	56.448	0.04309	0.11261	-0.68958	-0.71402	20.3	13111	100
2025-3-19 12:54:45.178	WT901BLE68(E947F43FF2E9)	-0.170	1.031	0.027	-50.232	-15.259	-11.108	88.45	9.88	-45.24	4.116	-61.642	1.176	0.62625	0.67419	-0.21735	-0.32547	21.6	13111	100
2025-3-19 12:54:45.261	WT901BLE68(490AABDC0D29)	0.128	1.055	-0.065	12.085	-0.549	49.194	94.32	4.27	-134.15	-7.252	-39.494	56.448	0.24774	0.29111	-0.67633	-0.62958	20.3	13111	100
2025-3-19 12:54:45.269	WT901BLE68(E947F43FF2E9)	0.021	1.337	-0.162	-83.313	-1.099	-58.350	81.90	13.44	-42.33	12.250	-61.348	-12.152	0.62625	0.67419	-0.21735	-0.32547	21.6	13111	100
2025-3-19 12:54:45.382	WT901BLE68(490AABDC0D29)	0.080	0.996	-0.157	-6.836	2.258	19.043	94.82	0.16	-136.13	-7.252	-39.494	56.448	0.24774	0.29111	-0.67633	-0.62958	20.3	13111	100
2025-3-19 12:54:45.389	WT901BLE68(E947F43FF2E9)	-0.018	0.820	-0.415	-53.528	248.108	-102.417	78.17	23.83	-31.78	12.250	-61.348	-12.152	0.62625	0.67419	-0.21735	-0.32547	21.6	13111	100
2025-3-19 12:54:45.449	WT901BLE68(E947F43FF2E9)	0.002	0.706	-0.146	40.222	31.799	34.241	89.24	28.33	-11.17	12.250	-61.348	-12.152	0.65170	0.73486	0.06476	-0.17599	21.6	13111	100
2025-3-19 12:54:45.471	WT901BLE68(490AABDC0D29)	0.108	0.984	-0.133	-9.644	7.935	13.489	94.15	-1.55	-136.72	-21.854	-38.122	57.330	0.24774	0.29111	-0.67633	-0.62958	20.3	13111	100
2025-3-19 12:54:45.558	WT901BLE68(490AABDC0D29)	0.054	0.984	-0.102	-11.169	2.686	13.672	93.41	-3.17	-137.57	-21.854	-38.122	57.330	0.24774	0.29111	-0.67633	-0.62958	20.3	13111	100
2025-3-19 12:54:45.569	WT901BLE68(E947F43FF2E9)	-0.105	0.979	0.037	84.412	23.071	130.615	97.26	17.23	-7.39	12.250	-61.348	-12.152	0.65170	0.73486	0.06476	-0.17599	21.6	13111	100
2025-3-19 12:54:45.657	WT901BLE68(E947F43FF2E9)	-1.325	1.302	0.275	78.674	55.664	169.434	106.05	0.52	-1.85	-1.960	-61.544	-2.352	0.65170	0.73486	0.06476	-0.17599	21.6	13111	100
2025-3-19 12:54:45.682	WT901BLE68(490AABDC0D29)	0.117	0.967	-0.154	-13.062	11.597	23.926	92.17	-4.83	-138.17	-21.854	-38.122	57.330	0.28726	0.21655	-0.68347	-0.63510	20.3	13111	100
2025-3-19 12:54:45.744	WT901BLE68(490AABDC0D29)	0.302	1.002	-0.134	-11.780	17.578	36.804	91.32	-7.97	-138.06	-21.854	-38.122	57.330	0.28726	0.21655	-0.68347	-0.63510	20.3	13111	100
2025-3-19 12:54:45.779	WT901BLE68(E947F43FF2E9)	0.275	1.086	-0.056	-0.610	-34.668	7.690	109.20	-12.51	-1.40	-1.960	-61.544	-2.352	0.65170	0.73486	0.06476	-0.17599	21.6	13111	100
2025-3-19 12:54:45.861	WT901BLE68(490AABDC0D29)	0.188	1.327	0.033	-40.161	33.020	76.660	88.74	-13.76	-137.29	-32.830	-36.456	51.646	0.28726	0.21655	-0.68347	-0.63510	20.3	13111	100
2025-3-19 12:54:45.869	WT901BLE68(E947F43FF2E9)	-0.048	1.045	-0.368	-4.822	105.652	-88.623	107.12	-3.54	-5.75	-1.960	-61.544	-2.352	0.59671	0.80225	-0.00287	-0.01465	21.6	13111	100
2025-3-19 12:54:45.949	WT901BLE68(490AABDC0D29)	-0.127	1.408	-0.368	-53.101	49.744	125.183	82.78	-22.81	-134.24	-32.830	-36.456	51.646	0.28726	0.21655	-0.68347	-0.63510	20.3	13111	100
2025-3-19 12:54:45.990	WT901BLE68(E947F43FF2E9)	-0.005	1.120	-0.103	13.306	-83.069	-16.785	106.84	2.79	-3.65	-1.960	-61.544	-2.352	0.59671	0.80225	-0.00287	-0.01465	21.6	13111	100
2025-3-19 12:54:46.70	WT901BLE68(490AABDC0D29)	-0.092	0.505	-0.109	-24.658	10.498	44.373	75.44	-30.40	-124.41	-32.830	-36.456	51.646	0.47012	0.08685	-0.63284	-0.60895	20.3	13111	100
2025-3-19 12:54:46.79	WT901BLE68(E947F43FF2E9)	-0.133	0.979	-0.208	-3.418	-8.667	-31.799	107.01	6.60	-5.91	7.938	-64.680	-3.234	0.59671	0.80225	-0.00287	-0.01465	21.6	13111	100
2025-3-19 12:54:46.159	WT901BLE68(490AABDC0D29)	-0.004	0.655	-0.211	28.992	-32.898	-102.478	81.08	-25.44	-131.75	-32.830	-36.456	51.646	0.47012	0.08685	-0.63284	-0.60895	20.3	13111	100
2025-3-19 12:54:46.196	WT901BLE68(E947F43FF2E9)	-0.153	0.968	-0.197	-27.649	-6.165	-21.423	105.31	9.14	-4.70	7.938	-64.680	-3.234	0.59671	0.80225	-0.00287	-0.01465	21.6	13111	100
2025-3-19 12:54:46.257	WT901BLE68(E947F43FF2E9)	-0.165	0.967	-0.163	-18.433	-3.235	-25.452	102.71	11.22	-4.26	7.938	-64.680	-3.234	0.62820	0.76904	0.04639	-0.10806	21.6	13111	100
2025-3-19 12:54:46.282	WT901BLE68(490AABDC0D29)	0.072	1.163	-0.028	79.163	-31.494	-211.670	89.59	-7.44	-136.21	-26.656	-38.122	53.116	0.47012	0.08685	-0.63284	-0.60895	20.3	13111	100
2025-3-19 12:54:46.345	WT901BLE68(490AABDC0D29)	1.884	1.591	0.041	79.956	-101.013	-215.210	97.39	14.75	-142.14	-26.656	-38.122	53.116	0.47012	0.08685	-0.63284	-0.60895	20.3	13111	100
2025-3-19 12:54:46.379	WT901BLE68(E947F43FF2E9)	-0.189	0.976	-0.143	-16.357	-14.526	-23.193	100.78	13.30	-3.83	7.938	-64.680	-3.234	0.62820	0.76904	0.04639	-0.10806	21.6	13111	100
2025-3-19 12:54:46.461	WT901BLE68(490AABDC0D29)	-3.291	1.060	0.186	2.747	-95.642	9.216	97.15	26.98	-154.26	-26.656	-38.122	53.116	-0.00323	0.22156	-0.68903	-0.68994	20.3	13111	100
2025-3-19 12:54:46.469	WT901BLE68(E947F43FF2E9)	-0.261	1.004	-0.104	-27.710	1.404	-50.598	98.58	16.57	-3.25	18.816	-64.092	-10.290	0.62820	0.76904	0.04639	-0.10806	21.6	13111	100
2025-3-19 12:54:46.549	WT901BLE68(490AABDC0D29)	0.225	1.299	0.101	-2.380	-122.986	61.157	91.22	15.83	-165.60	-26.656	-38.122	53.116	-0.00323	0.22156	-0.68903	-0.68994	20.3	13111	100
2025-3-19 12:54:46.589	WT901BLE68(E947F43FF2E9)	-0.174	1.330	-0.157	-43.091	-2.686	-82.275	95.45	22.36	-1.66	18.816	-64.092	-10.290	0.62820	0.76904	0.04639	-0.10806	21.6	13111	100
2025-3-19 12:54:46.670	WT901BLE68(490AABDC0D29)	0.134	1.067	-0.148	0.610	17.151	54.810	92.04	4.74	-173.75	-8.134	-37.926	60.564	-0.00323	0.22156	-0.68903	-0.68994	20.3	13111	100
2025-3-19 12:54:46.679	WT901BLE68(E947F43FF2E9)	-0.086	1.458	-0.222	-44.312	-118.042	-149.902	89.39	33.45	-5.03	18.816	-64.092	-10.290	0.68182	0.62955	0.19742	-0.31573	21.6	13111	100
2025-3-19 12:54:46.758	WT901BLE68(490AABDC0D29)	0.023	0.952	-0.211	-0.671	-9.338	38.818	92.94	0.09	-174.01	-8.134	-37.926	60.564	-0.00323	0.22156	-0.68903	-0.68994	20.3	13111	100
2025-3-19 12:54:46.798	WT901BLE68(E947F43FF2E9)	0.247	0.755	-0.273	-29.114	92.834	-62.744	79.64	44.26	-12.47	18.816	-64.092	-10.290	0.68182	0.62955	0.19742	-0.31573	21.6	13111	100
2025-3-19 12:54:46.888	WT901BLE68(E947F43FF2E9)	-0.039	0.491	0.130	68.420	8.667	99.609	88.97	40.03	-2.85	28.714	-61.250	-13.622	0.68182	0.62955	0.19742	-0.31573	21.6	13111	100
2025-3-19 12:54:46.911	WT901BLE68(490AABDC0D29)	0.080	0.981	-0.172	-13.489	-0.977	26.062	92.60	-2.91	-174.01	-8.134	-37.926	60.564	0.06314	0.00958	-0.71942	-0.69153	20.3	13111	100
2025-3-19 12:54:46.969	WT901BLE68(490AABDC0D29)	0.209	0.992	-0.101	-14.587	-12.512	46.021	91.59	-6.14	-174.72	-8.134	-37.926	60.564	0.06314	0.00958	-0.71942	-0.69153	20.3	13111	100
2025-3-19 12:54:46.978	WT901BLE68(E947F43FF2E9)	-0.167	0.973	0.168	114.990	-40.100	263.123	100.45	18.99	1.00	28.714	-61.250	-13.622	0.68182	0.62955	0.19742	-0.31573	21.6	13111	100
2025-3-19 12:54:47.67	WT901BLE68(E947F43FF2E9)	-1.915	1.730	0.235	110.596	-64.819	293.152	110.85	-8.11	-8.01	28.714	-61.250	-13.622	0.51035	0.80719	-0.29614	0.01251	21.6	13111	100
2025-3-19 12:54:47.92	WT901BLE68(490AABDC0D29)	0.248	1.011	-0.125	-16.602	-4.822	61.707	90.77	-11.22	-175.11	-20.286	-38.122	58.408	0.06314	0.00958	-0.71942	-0.69153	20.3	13111	100
2025-3-19 12:54:47.151	WT901BLE68(490AABDC0D29)	0.107	1.150	-0.021	-22.034	5.920	78.308	89.13	-17.47	-174.48	-20.286	-38.122	58.408	0.06314	0.00958	-0.71942	-0.69153	20.3	13111	100
2025-3-19 12:54:47.189	WT901BLE68(E947F43FF2E9)	-1.907	1.188	0.833	-22.278	-126.770	-6.653	120.49	-17.75	-30.94	28.714	-61.250	-13.622	0.51035	0.80719	-0.29614	0.01251	21.6	13111	100
2025-3-19 12:54:47.271	WT901BLE68(490AABDC0D29)	0.479	1.644	-0.097	-55.664	23.743	150.940	85.46	-27.77	-172.30	-20.286	-38.122	58.408	0.29477	-0.17941	-0.61142	-0.71204	20.3	13111	100
2025-3-19 12:54:47.279	WT901BLE68(E947F43FF2E9)	0.012	1.713	-0.572	-24.170	-59.204	-77.820	116.78	-6.55	-35.50	28.714	-61.250	-13.622	0.51035	0.80719	-0.29614	0.01251	21.6	13111	100
2025-3-19 12:54:47.359	WT901BLE68(490AABDC0D29)	-0.102	0.732	-0.130	-89.233	50.964	140.625	71.82	-40.51	-161.59	-20.286	-38.122	58.408	0.29477	-0.17941	-0.61142	-0.71204	20.3	13111	100
2025-3-19 12:54:47.399	WT901BLE68(E947F43FF2E9)	-0.039	1.021	-0.263	-25.452	-8.118	-62.256	112.94	0.63	-37.10	-5.488	-61.348	6.664	0.51035	0.80719	-0.29614	0.01251	21.6	13111	100
2025-3-19 12:54:47.482	WT901BLE68(490AABDC0D29)	0.147	0.450	-0.252	-45.166	-87.952	-80.078	67.43	-41.21	-163.83	-40.964	-34.006	45.080	0.29477	-0.17941	-0.61142	-0.71204	20.3	13111	100
2025-3-19 12:54:47.490	WT901BLE68(E947F43FF2E9)	-0.095	0.963	-0.179	-26.306	-17.029	-30.640	109.48	4.83	-37.41	-5.488	-61.348	6.664	0.54565	0.77353	-0.22214	-0.23340	21.6	13111	100
2025-3-19 12:54:47.569	WT901BLE68(490AABDC0D29)	0.255	0.804	-0.204	19.043	-44.678	-207.703	75.79	-26.65	-176.07	-40.964	-34.006	45.080	0.29477	-0.17941	-0.61142	-0.71204	20.3	13111	100
2025-3-19 12:54:47.609	WT901BLE68(E947F43FF2E9)	-0.136	0.959	-0.182	-24.780	-16.724	-24.109	106.59	7.47	-37.08	-5.488	-61.348	6.664	0.54565	0.77353	-0.22214	-0.23340	21.6	13111	100
2025-3-19 12:54:47.669	WT901BLE68(E947F43FF2E9)	-0.177	0.968	-0.133	-24.048	-15.015	-28.503	103.80	10.15	-36.61	5.488	-65.660	0.098	0.54565	0.77353	-0.22214	-0.23340	21.6	13111	100
2025-3-19 12:54:47.691	WT901BLE68(490AABDC0D29)	0.530	1.297	-0.244	67.261	-43.762	-239.868	83.40	-3.50	178.00	-40.964	-34.006	45.080	-0.09879	0.02856	-0.69662	-0.70996	20.3	13111	100
2025-3-19 12:54:47.751	WT901BLE68(490AABDC0D29)	0.981	1.550	-0.104	63.782	-63.110	-207.703	90.86	18.56	171.67	-40.964	-34.006	45.080	-0.09879	0.02856	-0.69662	-0.70996	20.3	13111	100
2025-3-19 12:54:47.789	WT901BLE68(E947F43FF2E9)	-0.250	0.999	-0.104	-29.297	-13.672	-45.166	100.89	13.78	-35.90	5.488	-65.660	0.098	0.54565	0.77353	-0.22214	-0.23340	21.6	13111	100
2025-3-19 12:54:47.871	WT901BLE68(490AABDC0D29)	0.371	1.192	0.482	-18.494	-164.185	141.174	90.50	18.65	161.48	8.036	-37.338	54.586	-0.09879	0.02856	-0.69662	-0.70996	20.3	13111	100
2025-3-19 12:54:47.878	WT901BLE68(E947F43FF2E9)	-0.198	1.266	-0.109	-34.912	-25.696	-79.651	97.21	19.32	-35.40	5.488	-65.660	0.098	0.57196	0.72220	-0.05185	-0.38531	21.6	13111	100
2025-3-19 12:54:47.959	WT901BLE68(490AABDC0D29)	0.083	1.063	-0.548	58.228	-48.096	119.324	90.24	3.72	153.60	8.036	-37.338	54.586	-0.09879	0.02856	-0.69662	-0.70996	20.3	13111	100
2025-3-19 12:54:47.999	WT901BLE68(E947F43FF2E9)	-0.240	1.592	-0.255	-34.668	-81.848	-154.480	92.88	30.56	-36.67	5.488	-65.660	0.098	0.57196	0.72220	-0.05185	-0.38531	21.6	13111	100
2025-3-19 12:54:48.80	WT901BLE68(490AABDC0D29)	0.058	1.035	-0.112	8.972	0.977	38.208	91.86	-3.09	154.51	8.036	-37.338	54.586	-0.11978	-0.18292	-0.69644	-0.68341	20.3	13111	100
2025-3-19 12:54:48.89	WT901BLE68(E947F43FF2E9)	0.020	0.497	-0.150	0.977	-95.947	-33.752	84.28	41.14	-43.95	5.488	-65.660	0.098	0.57196	0.72220	-0.05185	-0.38531	21.6	13111	100
2025-3-19 12:54:48.170	WT901BLE68(490AABDC0D29)	0.063	0.951	-0.145	-2.869	5.554	27.039	92.14	-6.14	156.06	8.036	-37.338	54.586	-0.11978	-0.18292	-0.69644	-0.68341	20.3	13111	100
2025-3-19 12:54:48.209	WT901BLE68(E947F43FF2E9)	-0.151	0.624	0.106	94.788	-54.077	95.337	87.52	36.04	-44.20	26.656	-63.994	-8.330	0.57196	0.72220	-0.05185	-0.38531	21.6	13111	100
2025-3-19 12:54:48.269	WT901BLE68(E947F43FF2E9)	-0.071	1.043	0.180	125.977	-38.147	170.471	97.98	22.16	-42.64	26.656	-63.994	-8.330	0.57196	0.72220	-0.05185	-0.38531	21.6	13111	100
2025-3-19 12:54:48.291	WT901BLE68(490AABDC0D29)	0.191	0.947	-0.181	-12.024	7.629	25.208	91.52	-8.51	158.04	-5.586	-40.670	55.664	-0.11978	-0.18292	-0.69644	-0.68341	20.3	13111	100
2025-3-19 12:54:48.387	WT901BLE68(E947F43FF2E9)	-0.868	1.377	0.192	132.263	-62.744	184.998	108.48	6.62	-55.40	26.656	-63.994	-8.330	0.48776	0.72925	-0.36765	-0.30820	21.6	13111	100
2025-3-19 12:54:48.412	WT901BLE68(490AABDC0D29)	0.220	0.993	-0.100	-15.503	-5.676	39.001	90.63	-11.46	158.83	-5.586	-40.670	55.664	-0.11978	-0.18292	-0.69644	-0.68341	20.3	13111	100
2025-3-19 12:54:48.479	WT901BLE68(E947F43FF2E9)	0.103	1.255	0.605	32.959	-63.232	126.770	116.78	-5.10	-73.30	-7.938	-53.606	20.776	0.48776	0.72925	-0.36765	-0.30820	21.6	13111	100
2025-3-19 12:54:48.501	WT901BLE68(490AABDC0D29)	0.234	1.007	-0.116	-26.428	0.061	33.630	88.90	-14.65	159.66	-5.586	-40.670	55.664	-0.01929	-0.21832	-0.65588	-0.72226	20.3	13111	100
2025-3-19 12:54:48.560	WT901BLE68(490AABDC0D29)	0.182	1.239	-0.147	-33.875	13.611	63.293	86.34	-18.55	161.78	-5.586	-40.670	55.664	-0.01929	-0.21832	-0.65588	-0.72226	20.3	13111	100
2025-3-19 12:54:48.599	WT901BLE68(E947F43FF2E9)	0.045	1.063	-0.226	5.981	60.242	-46.753	114.02	-0.56	-79.37	-7.938	-53.606	20.776	0.48776	0.72925	-0.36765	-0.30820	21.6	13111	100
2025-3-19 12:54:48.682	WT901BLE68(490AABDC0D29)	0.647	1.397	-0.034	-55.847	29.114	124.756	81.16	-26.31	166.28	-26.558	-41.650	44.100	-0.01929	-0.21832	-0.65588	-0.72226	20.3	13111	100
2025-3-19 12:54:48.689	WT901BLE68(E947F43FF2E9)	-0.096	0.997	-0.228	1.587	-33.936	-47.668	111.74	5.61	-83.82	-7.938	-53.606	20.776	0.48776	0.72925	-0.36765	-0.30820	21.6	13111	100
2025-3-19 12:54:48.770	WT901BLE68(490AABDC0D29)	0.088	0.515	-0.019	-65.918	4.333	106.689	69.87	-35.28	176.42	-26.558	-41.650	44.100	-0.01929	-0.21832	-0.65588	-0.72226	20.3	13111	100
2025-3-19 12:54:48.809	WT901BLE68(E947F43FF2E9)	-0.173	0.944	-0.290	-23.560	-2.136	-39.917	109.96	9.90	-89.75	-7.938	-53.606	20.776	0.35516	0.61310	-0.54056	-0.45346	21.6	13111	100
2025-3-19 12:54:48.891	WT901BLE68(490AABDC0D29)	0.080	0.681	-0.248	-44.128	-153.687	-69.397	70.21	-37.32	168.17	-26.558	-41.650	44.100	0.00534	-0.32217	-0.54266	-0.77560	20.3	13111	100
2025-3-19 12:54:48.897	WT901BLE68(E947F43FF2E9)	-0.103	0.953	-0.213	-25.818	-9.277	-17.334	106.83	12.66	-94.03	-7.938	-53.606	20.776	0.35516	0.61310	-0.54056	-0.45346	21.6	13111	100
2025-3-19 12:54:48.980	WT901BLE68(490AABDC0D29)	-0.007	0.804	-0.240	-6.897	-88.928	-152.771	77.36	-28.27	155.12	-26.558	-41.650	44.100	0.00534	-0.32217	-0.54266	-0.77560	20.3	13111	100
2025-3-19 12:54:49.19	WT901BLE68(E947F43FF2E9)	-0.150	0.967	-0.192	-22.278	-14.221	-6.653	103.99	13.40	-97.22	3.332	-60.564	17.346	0.35516	0.61310	-0.54056	-0.45346	21.6	13111	100
2025-3-19 12:54:49.79	WT901BLE68(E947F43FF2E9)	-0.140	0.980	-0.167	-24.719	0.549	-20.264	101.26	14.68	-100.51	3.332	-60.564	17.346	0.35516	0.61310	-0.54056	-0.45346	21.6	13111	100
2025-3-19 12:54:49.100	WT901BLE68(490AABDC0D29)	0.713	1.163	-0.435	37.659	-72.876	-226.563	84.00	-9.28	145.55	-0.588	-42.140	43.316	0.00534	-0.32217	-0.54266	-0.77560	20.3	13111	100
2025-3-19 12:54:49.161	WT901BLE68(490AABDC0D29)	0.334	1.516	-0.386	88.867	50.781	-211.731	92.52	13.16	143.94	-0.588	-42.140	43.316	0.00534	-0.32217	-0.54266	-0.77560	20.3	13111	100
2025-3-19 12:54:49.197	WT901BLE68(E947F43FF2E9)	-0.145	1.001	-0.119	-24.841	-25.269	-25.574	98.43	16.56	-104.38	3.332	-60.564	17.346	0.30606	0.53030	-0.53351	-0.58340	21.6	13111	100
2025-3-19 12:54:49.282	WT901BLE68(490AABDC0D29)	0.584	1.081	0.907	-39.429	-74.646	113.037	96.54	15.13	146.16	-0.588	-42.140	43.316	-0.27286	-0.20847	-0.69720	-0.62918	20.3	13111	100
2025-3-19 12:54:49.289	WT901BLE68(E947F43FF2E9)	-0.110	1.157	-0.111	-22.034	-22.827	-90.759	94.85	21.71	-110.56	21.168	-63.798	10.094	0.30606	0.53030	-0.53351	-0.58340	21.6	13111	100
2025-3-19 12:54:49.370	WT901BLE68(490AABDC0D29)	-0.045	1.230	-0.169	7.935	-112.976	112.000	93.16	3.08	137.82	-0.588	-42.140	43.316	-0.27286	-0.20847	-0.69720	-0.62918	20.3	13111	100
2025-3-19 12:54:49.437	WT901BLE68(E947F43FF2E9)	0.164	2.090	-0.262	-64.209	-96.802	-195.007	86.91	36.46	-123.24	21.168	-63.798	10.094	0.30606	0.53030	-0.53351	-0.58340	21.6	13111	100
2025-3-19 12:54:49.491	WT901BLE68(490AABDC0D29)	-0.010	0.973	-0.123	0.244	9.888	30.457	92.31	-2.49	138.52	2.646	-42.042	47.138	-0.27286	-0.20847	-0.69720	-0.62918	20.3	13111	100
2025-3-19 12:54:49.499	WT901BLE68(E947F43FF2E9)	0.034	0.301	-0.224	-30.273	-36.377	-16.602	72.03	45.59	-142.87	21.168	-63.798	10.094	0.30606	0.53030	-0.53351	-0.58340	21.6	13111	100
2025-3-19 12:54:49.580	WT901BLE68(490AABDC0D29)	0.068	0.980	-0.137	-13.428	20.447	22.827	91.73	-5.10	140.98	2.646	-42.042	47.138	-0.27286	-0.20847	-0.69720	-0.62918	20.3	13111	100
2025-3-19 12:54:49.617	WT901BLE68(E947F43FF2E9)	-0.050	0.323	-0.015	66.467	37.170	179.932	79.45	32.71	-140.52	21.168	-63.798	10.094	0.07983	0.41095	-0.50403	-0.75534	21.6	13111	100
2025-3-19 12:54:49.679	WT901BLE68(E947F43FF2E9)	-0.971	1.274	0.140	96.252	12.451	261.597	88.42	7.63	-143.41	21.168	-63.798	10.094	0.07983	0.41095	-0.50403	-0.75534	21.6	13111	100
2025-3-19 12:54:49.701	WT901BLE68(490AABDC0D29)	0.099	0.984	-0.132	-10.925	-4.028	38.635	91.18	-8.14	142.05	2.646	-42.042	47.138	-0.15125	-0.28546	-0.65045	-0.68735	20.3	13111	100
2025-3-19 12:54:49.790	WT901BLE68(490AABDC0D29)	0.184	1.001	-0.153	-15.259	9.949	41.565	90.32	-11.84	144.23	2.646	-42.042	47.138	-0.15125	-0.28546	-0.65045	-0.68735	20.3	13111	100
2025-3-19 12:54:49.799	WT901BLE68(E947F43FF2E9)	0.092	1.957	0.310	67.688	27.283	228.088	97.72	-17.76	-143.03	-9.996	-54.194	17.444	0.07983	0.41095	-0.50403	-0.75534	21.6	13111	100
2025-3-19 12:54:49.890	WT901BLE68(E947F43FF2E9)	-0.802	1.298	-0.276	-61.340	77.332	-170.776	94.87	-12.74	-138.16	-9.996	-54.194	17.444	0.07983	0.41095	-0.50403	-0.75534	21.6	13111	100
2025-3-19 12:54:49.911	WT901BLE68(490AABDC0D29)	0.132	1.034	-0.180	-29.541	11.902	65.552	88.10	-16.78	147.37	-11.270	-44.884	43.022	-0.15125	-0.28546	-0.65045	-0.68735	20.3	13111	100
2025-3-19 12:54:49.970	WT901BLE68(490AABDC0D29)	0.664	1.576	-0.116	-43.091	34.546	124.634	83.65	-24.18	153.01	-11.270	-44.884	43.022	-0.15125	-0.28546	-0.65045	-0.68735	20.3	13111	100
2025-3-19 12:54:50.7	WT901BLE68(E947F43FF2E9)	0.055	1.019	-0.413	28.931	64.087	-113.342	94.68	-4.72	-134.98	-9.996	-54.194	17.444	0.28305	0.26834	-0.68018	-0.62057	21.6	13111	100
2025-3-19 12:54:50.91	WT901BLE68(490AABDC0D29)	-0.002	0.802	-0.348	-40.649	79.102	130.615	73.69	-34.61	166.77	-11.270	-44.884	43.022	0.14795	-0.27597	-0.51807	-0.79590	20.3	13111	100
2025-3-19 12:54:50.99	WT901BLE68(E947F43FF2E9)	-0.098	1.003	-0.194	2.930	23.865	-55.481	94.37	1.72	-133.90	-9.996	-54.194	17.444	0.28305	0.26834	-0.68018	-0.62057	21.6	13111	100
2025-3-19 12:54:50.180	WT901BLE68(490AABDC0D29)	-0.093	0.444	-0.134	7.080	-7.690	-18.494	67.32	-35.63	177.30	-11.270	-44.884	43.022	0.14795	-0.27597	-0.51807	-0.79590	20.3	13111	100
2025-3-19 12:54:50.217	WT901BLE68(E947F43FF2E9)	-0.119	0.982	-0.124	-18.066	-7.996	-37.415	93.04	6.22	-133.54	-2.842	-59.878	14.112	0.28305	0.26834	-0.68018	-0.62057	21.6	13111	100
2025-3-19 12:54:50.301	WT901BLE68(490AABDC0D29)	-0.027	0.748	0.027	80.566	-23.254	-154.480	75.62	-26.53	174.22	-16.464	-43.120	43.512	0.14795	-0.27597	-0.51807	-0.79590	20.3	13111	100
2025-3-19 12:54:50.309	WT901BLE68(E947F43FF2E9)	-0.161	0.975	-0.139	-19.226	-9.216	-37.048	91.55	9.46	-133.77	-2.842	-59.878	14.112	0.28305	0.26834	-0.68018	-0.62057	21.6	13111	100
2025-3-19 12:54:50.390	WT901BLE68(490AABDC0D29)	0.442	1.276	0.169	96.619	13.916	-228.271	86.09	-5.84	173.28	-16.464	-43.120	43.512	0.14795	-0.27597	-0.51807	-0.79590	20.3	13111	100
2025-3-19 12:54:50.429	WT901BLE68(E947F43FF2E9)	-0.193	0.972	-0.112	-19.714	0.916	-36.560	90.12	12.77	-133.93	-2.842	-59.878	14.112	0.20151	0.34836	-0.61563	-0.67746	21.6	13111	100
2025-3-19 12:54:50.490	WT901BLE68(E947F43FF2E9)	-0.250	0.998	-0.111	-26.489	-5.798	-43.335	88.49	16.30	-133.53	-2.842	-59.878	14.112	0.20151	0.34836	-0.61563	-0.67746	21.6	13111	100
2025-3-19 12:54:50.511	WT901BLE68(490AABDC0D29)	-0.325	1.727	0.348	78.186	14.648	-210.327	95.47	17.34	174.96	-16.464	-43.120	43.512	-0.18619	0.06918	-0.73444	-0.64886	20.3	13111	100
2025-3-19 12:54:50.571	WT901BLE68(490AABDC0D29)	0.160	1.329	-0.148	-45.898	-84.412	103.088	94.50	20.06	170.26	-16.464	-43.120	43.512	-0.18619	0.06918	-0.73444	-0.64886	20.3	13111	100
2025-3-19 12:54:50.607	WT901BLE68(E947F43FF2E9)	-0.205	1.288	-0.176	-41.199	-9.888	-82.764	85.62	21.56	-133.48	11.564	-64.974	7.546	0.20151	0.34836	-0.61563	-0.67746	21.6	13111	100
2025-3-19 12:54:50.691	WT901BLE68(490AABDC0D29)	0.022	0.892	-0.313	0.366	-33.386	96.924	92.13	8.28	166.11	4.802	-38.024	56.056	-0.18619	0.06918	-0.73444	-0.64886	20.3	13111	100
2025-3-19 12:54:50.699	WT901BLE68(E947F43FF2E9)	-0.311	1.648	-0.234	-64.331	-63.232	-165.527	77.82	32.45	-142.96	11.564	-64.974	7.546	0.20151	0.34836	-0.61563	-0.67746	21.6	13111	100
2025-3-19 12:54:50.781	WT901BLE68(490AABDC0D29)	0.049	0.988	-0.146	10.193	-13.245	50.720	91.92	1.19	165.55	4.802	-38.024	56.056	-0.18619	0.06918	-0.73444	-0.64886	20.3	13111	100
2025-3-19 12:54:50.847	WT901BLE68(E947F43FF2E9)	0.009	0.557	-0.190	-31.067	-61.890	-40.283	63.93	40.13	-162.11	11.564	-64.974	7.546	-0.06613	0.34750	-0.44589	-0.82214	21.6	13111	100
2025-3-19 12:54:50.901	WT901BLE68(490AABDC0D29)	0.106	0.984	-0.146	-10.071	8.301	27.283	91.70	-2.47	166.50	4.802	-38.024	56.056	-0.04453	-0.10837	-0.70541	-0.69897	20.3	13111	100
2025-3-19 12:54:50.909	WT901BLE68(E947F43FF2E9)	-0.301	0.538	-0.070	47.607	36.255	123.596	66.96	32.71	-163.67	11.564	-64.974	7.546	-0.06613	0.34750	-0.44589	-0.82214	21.6	13111	100
2025-3-19 12:54:50.990	WT901BLE68(490AABDC0D29)	0.179	0.979	-0.124	-12.329	4.272	39.185	90.91	-5.84	167.73	4.802	-38.024	56.056	-0.04453	-0.10837	-0.70541	-0.69897	20.3	13111	100
2025-3-19 12:54:51.28	WT901BLE68(E947F43FF2E9)	-0.154	1.060	0.034	94.971	10.681	205.078	78.00	15.86	-160.72	16.268	-65.170	3.430	-0.06613	0.34750	-0.44589	-0.82214	21.6	13111	100
2025-3-19 12:54:51.89	WT901BLE68(E947F43FF2E9)	-1.823	1.459	0.159	109.314	10.559	212.891	89.09	-4.70	-158.63	16.268	-65.170	3.430	-0.06613	0.34750	-0.44589	-0.82214	21.6	13111	100
2025-3-19 12:54:51.111	WT901BLE68(490AABDC0D29)	0.214	0.993	-0.159	-12.085	-1.526	40.527	90.07	-9.62	168.60	-8.232	-41.944	53.802	-0.04453	-0.10837	-0.70541	-0.69897	20.3	13111	100
2025-3-19 12:54:51.200	WT901BLE68(490AABDC0D29)	0.310	1.007	-0.126	-27.527	7.385	47.180	88.47	-13.68	169.60	-8.232	-41.944	53.802	-0.04453	-0.10837	-0.70541	-0.69897	20.3	13111	100
2025-3-19 12:54:51.209	WT901BLE68(E947F43FF2E9)	-0.278	1.080	0.690	-0.122	-22.217	30.823	94.70	-18.73	-157.11	16.268	-65.170	3.430	0.24664	0.03778	-0.73154	-0.63443	21.6	13111	100
2025-3-19 12:54:51.299	WT901BLE68(E947F43FF2E9)	0.211	1.270	-0.867	-3.174	4.822	-76.965	92.80	-11.55	-158.27	16.268	-65.170	3.430	0.24664	0.03778	-0.73154	-0.63443	21.6	13111	100
2025-3-19 12:54:51.321	WT901BLE68(490AABDC0D29)	-0.011	1.387	-0.094	-43.884	8.423	96.802	85.23	-20.59	171.26	-8.232	-41.944	53.802	0.12460	-0.21271	-0.62228	-0.74289	20.3	13111	100
2025-3-19 12:54:51.380	WT901BLE68(490AABDC0D29)	-0.221	1.232	-0.273	-52.124	94.849	139.038	77.54	-31.97	179.51	-8.232	-41.944	53.802	0.12460	-0.21271	-0.62228	-0.74289	20.3	13111	100
2025-3-19 12:54:51.419	WT901BLE68(E947F43FF2E9)	-0.079	0.970	-0.145	-7.202	-31.982	-41.748	92.20	-6.70	-162.01	-7.056	-56.350	17.836	0.24664	0.03778	-0.73154	-0.63443	21.6	13111	100
2025-3-19 12:54:51.501	WT901BLE68(490AABDC0D29)	0.060	0.434	-0.045	-32.715	59.692	-25.269	67.99	-34.85	-167.43	-29.988	-41.650	40.082	0.12460	-0.21271	-0.62228	-0.74289	20.3	13111	100
2025-3-19 12:54:51.545	WT901BLE68(E947F43FF2E9)	-0.043	0.996	-0.237	-21.057	-18.127	-32.166	91.75	-3.21	-163.30	-7.056	-56.350	17.836	0.24664	0.03778	-0.73154	-0.63443	21.6	13111	100
2025-3-19 12:54:51.590	WT901BLE68(490AABDC0D29)	0.158	0.709	0.008	50.476	-53.772	-139.771	73.43	-25.88	-171.65	-29.988	-41.650	40.082	0.12460	-0.21271	-0.62228	-0.74289	20.3	13111	100
2025-3-19 12:54:51.626	WT901BLE68(E947F43FF2E9)	-0.107	0.946	-0.204	-20.447	6.653	-28.320	90.15	-0.17	-164.23	-7.056	-56.350	17.836	0.09464	0.10162	-0.69772	-0.70270	21.6	13111	100
2025-3-19 12:54:51.746	WT901BLE68(490AABDC0D29)	0.202	1.159	0.111	71.228	-11.475	-205.261	82.71	-8.71	-177.84	-29.988	-41.650	40.082	-0.05725	0.05280	-0.69907	-0.71072	20.3	13111	100
2025-3-19 12:54:51.747	WT901BLE68(E947F43FF2E9)	-0.124	0.977	-0.153	-22.278	0.671	-30.029	88.60	2.60	-163.34	-7.056	-56.350	17.836	0.09464	0.10162	-0.69772	-0.70270	21.6	13111	100
2025-3-19 12:54:51.800	WT901BLE68(490AABDC0D29)	1.497	1.575	0.239	63.843	-29.297	-204.773	89.94	11.96	179.07	-29.988	-41.650	40.082	-0.05725	0.05280	-0.69907	-0.71072	20.3	13111	100
2025-3-19 12:54:51.849	WT901BLE68(E947F43FF2E9)	-0.130	0.963	-0.149	-24.353	6.714	-32.227	86.97	5.81	-162.11	3.822	-62.818	12.642	0.09464	0.10162	-0.69772	-0.70270	21.6	13111	100
2025-3-19 12:54:51.900	WT901BLE68(E947F43FF2E9)	-0.014	0.991	-0.101	-31.677	-10.498	-37.598	84.73	9.27	-161.46	3.822	-62.818	12.642	0.09464	0.10162	-0.69772	-0.70270	21.6	13111	100
2025-3-19 12:54:51.921	WT901BLE68(490AABDC0D29)	0.100	0.996	0.063	3.906	-67.444	9.888	90.30	24.03	169.35	16.170	-34.496	50.470	-0.05725	0.05280	-0.69907	-0.71072	20.3	13111	100
2025-3-19 12:54:51.980	WT901BLE68(490AABDC0D29)	0.221	1.066	0.061	24.719	-33.752	80.566	87.40	15.07	163.24	16.170	-34.496	50.470	-0.05725	0.05280	-0.69907	-0.71072	20.3	13111	100
2025-3-19 12:54:52.17	WT901BLE68(E947F43FF2E9)	-0.136	1.271	-0.174	-41.138	-16.968	-77.942	81.55	14.54	-161.95	3.822	-62.818	12.642	0.02444	0.19943	-0.61932	-0.75894	21.6	13111	100
2025-3-19 12:54:52.102	WT901BLE68(490AABDC0D29)	-0.052	1.108	-0.044	11.963	-22.827	66.589	88.59	5.79	162.17	16.170	-34.496	50.470	-0.12634	-0.09982	-0.69733	-0.69836	20.3	13111	100
2025-3-19 12:54:52.109	WT901BLE68(E947F43FF2E9)	-0.065	1.671	-0.301	-63.721	-87.646	-149.231	73.57	24.52	-174.44	3.822	-62.818	12.642	0.02444	0.19943	-0.61932	-0.75894	21.6	13111	100
2025-3-19 12:54:52.190	WT901BLE68(490AABDC0D29)	0.084	0.964	-0.197	7.935	-7.141	40.894	89.99	0.80	161.51	16.170	-34.496	50.470	-0.12634	-0.09982	-0.69733	-0.69836	20.3	13111	100
2025-3-19 12:54:52.229	WT901BLE68(E947F43FF2E9)	-0.321	0.360	-0.067	32.715	-80.444	-4.883	66.92	26.81	165.56	27.146	-64.680	3.528	0.02444	0.19943	-0.61932	-0.75894	21.6	13111	100
2025-3-19 12:54:52.312	WT901BLE68(490AABDC0D29)	0.174	1.002	-0.086	-5.066	-1.221	27.222	90.09	-2.76	161.36	2.646	-41.454	50.176	-0.12634	-0.09982	-0.69733	-0.69836	20.3	13111	100
2025-3-19 12:54:52.319	WT901BLE68(E947F43FF2E9)	-0.576	0.655	-0.021	129.700	-0.366	124.146	78.43	17.20	165.23	27.146	-64.680	3.528	0.02444	0.19943	-0.61932	-0.75894	21.6	13111	100
2025-3-19 12:54:52.400	WT901BLE68(490AABDC0D29)	0.116	0.932	-0.110	-9.949	-5.005	41.870	89.94	-6.25	162.10	2.646	-41.454	50.176	-0.12634	-0.09982	-0.69733	-0.69836	20.3	13111	100
2025-3-19 12:54:52.437	WT901BLE68(E947F43FF2E9)	-0.230	1.153	0.171	127.258	-17.090	124.451	92.46	4.13	166.54	27.146	-64.680	3.528	-0.08527	-0.09103	-0.73853	-0.66251	21.6	13111	100
2025-3-19 12:54:52.499	WT901BLE68(E947F43FF2E9)	-0.163	1.110	0.220	54.077	-69.031	88.196	100.58	-4.90	160.72	27.146	-64.680	3.528	-0.08527	-0.09103	-0.73853	-0.66251	21.6	13111	100
2025-3-19 12:54:52.535	WT901BLE68(490AABDC0D29)	0.357	1.022	-0.115	-12.085	-11.963	46.204	89.20	-10.03	162.16	2.646	-41.454	50.176	-0.02393	-0.19724	-0.67136	-0.71393	20.3	13111	100
2025-3-19 12:54:52.610	WT901BLE68(490AABDC0D29)	0.379	0.935	-0.058	-9.705	1.221	47.424	88.72	-14.90	162.10	2.646	-41.454	50.176	-0.02393	-0.19724	-0.67136	-0.71393	20.3	13111	100
2025-3-19 12:54:52.619	WT901BLE68(E947F43FF2E9)	-0.165	1.048	-0.044	2.808	-19.958	46.021	103.04	-9.83	156.20	4.116	-53.214	31.556	-0.08527	-0.09103	-0.73853	-0.66251	21.6	13111	100
2025-3-19 12:54:52.709	WT901BLE68(E947F43FF2E9)	0.081	0.893	-0.373	-9.827	-50.598	-3.357	101.05	-10.55	156.28	4.116	-53.214	31.556	-0.08527	-0.09103	-0.73853	-0.66251	21.6	13111	100
2025-3-19 12:54:52.733	WT901BLE68(490AABDC0D29)	0.527	0.899	-0.076	-10.559	6.348	63.049	88.17	-20.28	163.24	-14.504	-44.492	46.648	-0.02393	-0.19724	-0.67136	-0.71393	20.3	13111	100
2025-3-19 12:54:52.790	WT901BLE68(490AABDC0D29)	0.575	0.800	-0.089	-22.766	5.127	67.505	86.65	-26.61	164.37	-14.504	-44.492	46.648	-0.02393	-0.19724	-0.67136	-0.71393	20.3	13111	100
2025-3-19 12:54:52.834	WT901BLE68(E947F43FF2E9)	-0.059	0.858	-0.232	-9.155	-64.392	-8.118	100.88	-7.79	151.61	4.116	-53.214	31.556	-0.11377	-0.23410	-0.73386	-0.62738	21.6	13111	100
2025-3-19 12:54:52.911	WT901BLE68(490AABDC0D29)	0.372	1.230	-0.071	-37.659	25.391	94.666	82.81	-33.89	167.39	-14.504	-44.492	46.648	0.17245	-0.31879	-0.56049	-0.74457	20.3	13111	100
2025-3-19 12:54:52.919	WT901BLE68(E947F43FF2E9)	0.204	0.932	-0.174	-24.597	122.375	-39.551	98.32	-4.54	158.63	4.116	-53.214	31.556	-0.11377	-0.23410	-0.73386	-0.62738	21.6	13111	100
2025-3-19 12:54:53.0	WT901BLE68(490AABDC0D29)	-0.886	0.909	-0.045	-87.769	7.324	112.854	74.10	-44.32	173.87	-14.504	-44.492	46.648	0.17245	-0.31879	-0.56049	-0.74457	20.3	13111	100
2025-3-19 12:54:53.37	WT901BLE68(E947F43FF2E9)	-0.063	1.742	0.346	-34.973	-9.705	-25.940	96.32	-1.92	164.65	5.782	-53.704	28.812	-0.11377	-0.23410	-0.73386	-0.62738	21.6	13111	100
2025-3-19 12:54:53.121	WT901BLE68(490AABDC0D29)	0.145	0.373	-0.268	-48.584	-184.021	-134.949	73.09	-43.41	165.34	-19.110	-44.198	34.300	0.17245	-0.31879	-0.56049	-0.74457	20.3	13111	100
2025-3-19 12:54:53.135	WT901BLE68(E947F43FF2E9)	-0.070	0.972	-0.226	-15.564	-14.038	23.010	94.56	-0.48	165.02	5.782	-53.704	28.812	-0.11377	-0.23410	-0.73386	-0.62738	21.6	13111	100
2025-3-19 12:54:53.209	WT901BLE68(490AABDC0D29)	1.956	1.119	-0.485	22.034	-130.432	-284.546	81.35	-20.50	149.68	-19.110	-44.198	34.300	0.17245	-0.31879	-0.56049	-0.74457	20.3	13111	100
2025-3-19 12:54:53.280	WT901BLE68(E947F43FF2E9)	0.030	0.971	-0.196	-16.052	-5.798	10.498	93.40	-1.63	165.65	5.782	-53.704	28.812	-0.07510	-0.10059	-0.72043	-0.68201	21.6	13111	100
2025-3-19 12:54:53.308	WT901BLE68(E947F43FF2E9)	-0.123	1.020	-0.153	-25.635	-2.319	-31.921	91.83	-0.60	165.52	5.782	-53.704	28.812	-0.07510	-0.10059	-0.72043	-0.68201	21.6	13111	100
2025-3-19 12:54:53.337	WT901BLE68(490AABDC0D29)	0.181	1.554	-0.265	1.648	3.235	-110.840	88.36	3.07	137.49	-19.110	-44.198	34.300	-0.27499	-0.23398	-0.65558	-0.66312	20.3	13111	100
2025-3-19 12:54:53.391	WT901BLE68(490AABDC0D29)	0.035	1.340	-0.459	46.387	-40.710	40.161	88.49	2.50	137.16	-19.110	-44.198	34.300	-0.27499	-0.23398	-0.65558	-0.66312	20.3	13111	100
2025-3-19 12:54:53.436	WT901BLE68(E947F43FF2E9)	-0.080	1.187	-0.149	-15.137	-25.574	-77.454	90.06	5.36	164.46	10.290	-57.722	24.500	-0.07510	-0.10059	-0.72043	-0.68201	21.6	13111	100
2025-3-19 12:54:53.510	WT901BLE68(490AABDC0D29)	0.096	1.020	-0.100	2.747	1.465	35.706	89.71	-2.68	135.66	-19.110	-44.198	34.300	-0.27499	-0.23398	-0.65558	-0.66312	20.3	13111	100
2025-3-19 12:54:53.518	WT901BLE68(E947F43FF2E9)	0.196	1.456	-0.130	-4.822	-92.346	-119.080	88.09	15.82	157.61	10.290	-57.722	24.500	-0.07510	-0.10059	-0.72043	-0.68201	21.6	13111	100
2025-3-19 12:54:53.600	WT901BLE68(490AABDC0D29)	0.089	0.990	-0.160	-1.709	-14.221	31.433	90.36	-6.21	135.38	5.586	-40.278	35.770	-0.27499	-0.23398	-0.65558	-0.66312	20.3	13111	100
2025-3-19 12:54:53.637	WT901BLE68(E947F43FF2E9)	-0.237	0.248	-0.350	45.959	-127.075	33.630	86.35	20.30	143.01	10.290	-57.722	24.500	-0.34695	-0.12454	-0.68015	-0.63354	21.6	13111	100
2025-3-19 12:54:53.720	WT901BLE68(490AABDC0D29)	0.158	0.968	-0.145	-7.568	-4.211	20.630	90.55	-8.69	135.83	5.586	-40.278	35.770	-0.19940	-0.32138	-0.63220	-0.67615	20.3	13111	100
2025-3-19 12:54:53.738	WT901BLE68(E947F43FF2E9)	-0.323	0.628	-0.054	111.084	-35.278	117.065	94.56	10.09	135.09	10.290	-57.722	24.500	-0.34695	-0.12454	-0.68015	-0.63354	21.6	13111	100
2025-3-19 12:54:53.811	WT901BLE68(490AABDC0D29)	0.212	0.973	-0.125	-4.700	-9.644	27.161	90.34	-10.97	136.69	5.586	-40.278	35.770	-0.19940	-0.32138	-0.63220	-0.67615	20.3	13111	100
2025-3-19 12:54:53.849	WT901BLE68(E947F43FF2E9)	-0.194	1.080	0.059	84.045	-66.589	137.512	104.14	-1.37	129.32	21.658	-52.234	31.262	-0.34695	-0.12454	-0.68015	-0.63354	21.6	13111	100
2025-3-19 12:54:53.909	WT901BLE68(E947F43FF2E9)	-0.111	1.147	0.014	26.855	-67.322	96.802	108.75	-9.50	120.45	21.658	-52.234	31.262	-0.34695	-0.12454	-0.68015	-0.63354	21.6	13111	100
2025-3-19 12:54:53.937	WT901BLE68(490AABDC0D29)	0.237	0.982	-0.125	-7.935	-4.822	37.109	90.46	-13.86	137.20	-3.528	-42.728	33.712	-0.19940	-0.32138	-0.63220	-0.67615	20.3	13111	100
2025-3-19 12:54:54.19	WT901BLE68(490AABDC0D29)	0.396	0.981	-0.135	-10.132	0.000	44.312	89.82	-17.52	138.89	-3.528	-42.728	33.712	-0.19940	-0.32138	-0.63220	-0.67615	20.3	13111	100
2025-3-19 12:54:54.40	WT901BLE68(E947F43FF2E9)	-0.033	1.018	-0.120	-7.263	-28.503	31.494	108.86	-12.85	117.78	21.658	-52.234	31.262	-0.22171	-0.47345	-0.65707	-0.54294	21.6	13111	100
2025-3-19 12:54:54.119	WT901BLE68(E947F43FF2E9)	0.063	0.901	-0.253	-18.066	-22.339	0.732	106.64	-12.19	117.48	21.658	-52.234	31.262	-0.22171	-0.47345	-0.65707	-0.54294	21.6	13111	100
2025-3-19 12:54:54.143	WT901BLE68(490AABDC0D29)	0.455	0.888	-0.127	-11.292	4.150	56.824	88.99	-22.27	140.86	-3.528	-42.728	33.712	-0.06821	-0.37570	-0.58154	-0.71823	20.3	13111	100
2025-3-19 12:54:54.200	WT901BLE68(490AABDC0D29)	0.516	0.886	-0.060	-27.710	3.235	60.181	87.21	-27.69	143.04	-3.528	-42.728	33.712	-0.06821	-0.37570	-0.58154	-0.71823	20.3	13111	100
2025-3-19 12:54:54.269	WT901BLE68(E947F43FF2E9)	0.103	0.888	-0.332	-17.395	-53.284	-17.578	105.17	-9.13	115.15	22.736	-51.058	32.144	-0.22171	-0.47345	-0.65707	-0.54294	21.6	13111	100
2025-3-19 12:54:54.322	WT901BLE68(490AABDC0D29)	0.561	1.028	-0.139	-39.917	20.142	84.839	83.34	-33.98	146.49	-3.528	-42.728	33.712	-0.06821	-0.37570	-0.58154	-0.71823	20.3	13111	100
2025-3-19 12:54:54.340	WT901BLE68(E947F43FF2E9)	-0.042	1.032	-0.544	-5.920	77.759	-17.151	104.08	-6.34	115.42	22.736	-51.058	32.144	-0.22171	-0.47345	-0.65707	-0.54294	21.6	13111	100
2025-3-19 12:54:54.410	WT901BLE68(490AABDC0D29)	0.395	1.053	0.071	-66.833	13.611	103.943	75.48	-42.29	153.03	-24.598	-39.984	24.892	-0.06821	-0.37570	-0.58154	-0.71823	20.3	13111	100
2025-3-19 12:54:54.447	WT901BLE68(E947F43FF2E9)	-0.511	0.943	-0.097	-10.132	57.739	-20.386	100.54	-3.57	126.15	22.736	-51.058	32.144	-0.26141	-0.35355	-0.68152	-0.58490	21.6	13111	100
2025-3-19 12:54:54.540	WT901BLE68(490AABDC0D29)	0.018	0.148	-0.009	-108.948	-45.288	40.894	64.78	-49.37	157.51	-24.598	-39.984	24.892	-0.04169	-0.46619	-0.42868	-0.77271	20.3	13111	100
2025-3-19 12:54:54.540	WT901BLE68(E947F43FF2E9)	-0.048	0.910	-0.274	-15.076	21.057	-35.400	99.23	-1.25	130.32	22.736	-51.058	32.144	-0.26141	-0.35355	-0.68152	-0.58490	21.6	13111	100
2025-3-19 12:54:54.620	WT901BLE68(490AABDC0D29)	0.343	0.637	-0.462	-34.851	-116.760	-196.472	75.62	-40.34	138.17	-24.598	-39.984	24.892	-0.04169	-0.46619	-0.42868	-0.77271	20.3	13111	100
2025-3-19 12:54:54.658	WT901BLE68(E947F43FF2E9)	-0.056	0.975	-0.212	-10.620	10.559	4.578	98.07	-1.07	129.91	22.246	-50.960	29.400	-0.26141	-0.35355	-0.68152	-0.58490	21.6	13111	100
2025-3-19 12:54:54.718	WT901BLE68(E947F43FF2E9)	-0.043	0.991	-0.156	-9.827	-17.090	1.343	97.08	-1.09	130.08	22.246	-50.960	29.400	-0.26141	-0.35355	-0.68152	-0.58490	21.6	13111	100
2025-3-19 12:54:54.741	WT901BLE68(490AABDC0D29)	1.541	1.271	-0.333	36.255	-96.130	-270.935	82.08	-14.51	130.54	-2.646	-39.102	21.658	-0.04169	-0.46619	-0.42868	-0.77271	20.3	13111	100
2025-3-19 12:54:54.801	WT901BLE68(490AABDC0D29)	-0.253	1.420	-0.045	-0.977	7.690	-68.542	89.09	4.20	122.04	-2.646	-39.102	21.658	-0.04169	-0.46619	-0.42868	-0.77271	20.3	13111	100
2025-3-19 12:54:54.868	WT901BLE68(E947F43FF2E9)	-0.162	1.006	-0.114	-18.250	-8.728	-21.362	95.86	0.00	129.42	22.246	-50.960	29.400	-0.29684	-0.30847	-0.67029	-0.60605	21.6	13111	100
2025-3-19 12:54:54.921	WT901BLE68(490AABDC0D29)	0.105	1.037	-0.258	26.672	-84.839	46.326	88.42	1.66	119.30	-2.646	-39.102	21.658	-0.04169	-0.46619	-0.42868	-0.77271	20.3	13111	100
2025-3-19 12:54:54.929	WT901BLE68(E947F43FF2E9)	-0.206	1.011	-0.091	-16.113	-13.245	-43.518	94.24	3.64	129.14	22.246	-50.960	29.400	-0.29684	-0.30847	-0.67029	-0.60605	21.6	13111	100
2025-3-19 12:54:55.10	WT901BLE68(490AABDC0D29)	0.128	1.043	-0.053	1.404	-0.366	43.274	89.46	-3.65	118.88	-2.646	-39.102	21.658	-0.34167	-0.37711	-0.59421	-0.62277	20.3	13111	100
2025-3-19 12:54:55.46	WT901BLE68(E947F43FF2E9)	-0.221	1.333	-0.211	-6.348	-39.307	-92.041	93.12	9.91	127.59	30.772	-51.940	25.284	-0.29684	-0.30847	-0.67029	-0.60605	21.6	13111	100
2025-3-19 12:54:55.142	WT901BLE68(490AABDC0D29)	0.040	1.013	-0.148	8.789	-8.545	35.339	90.54	-7.44	121.22	-2.646	-39.102	21.658	-0.34167	-0.37711	-0.59421	-0.62277	20.3	13111	100
2025-3-19 12:54:55.142	WT901BLE68(E947F43FF2E9)	0.031	0.958	0.028	-3.418	-106.873	-96.924	90.65	20.41	118.80	30.772	-51.940	25.284	-0.29684	-0.30847	-0.67029	-0.60605	21.6	13111	100
2025-3-19 12:54:55.220	WT901BLE68(490AABDC0D29)	0.178	0.983	-0.200	-1.526	-6.165	25.208	91.33	-9.66	124.19	-7.742	-40.376	21.658	-0.34167	-0.37711	-0.59421	-0.62277	20.3	13111	100
2025-3-19 12:54:55.257	WT901BLE68(E947F43FF2E9)	-0.217	0.371	-0.148	69.397	-13.672	62.073	90.54	22.08	110.20	30.772	-51.940	25.284	-0.49026	-0.32178	-0.65103	-0.48184	21.6	13111	100
2025-3-19 12:54:55.317	WT901BLE68(E947F43FF2E9)	-0.476	0.777	-0.013	104.187	-37.415	127.502	99.21	12.12	106.41	30.772	-51.940	25.284	-0.49026	-0.32178	-0.65103	-0.48184	21.6	13111	100
2025-3-19 12:54:55.343	WT901BLE68(490AABDC0D29)	0.199	0.955	-0.148	-8.301	-5.554	19.775	91.18	-11.62	127.35	-7.742	-40.376	21.658	-0.21896	-0.37231	-0.60605	-0.66785	20.3	13111	100
2025-3-19 12:54:55.430	WT901BLE68(490AABDC0D29)	0.147	0.940	-0.149	-11.902	-12.268	31.006	90.64	-13.66	130.39	-7.742	-40.376	21.658	-0.21896	-0.37231	-0.60605	-0.66785	20.3	13111	100
2025-3-19 12:54:55.444	WT901BLE68(E947F43FF2E9)	-0.256	1.100	0.188	70.374	-104.797	141.296	106.69	0.24	98.16	36.554	-50.372	24.206	-0.49026	-0.32178	-0.65103	-0.48184	21.6	13111	100
2025-3-19 12:54:55.528	WT901BLE68(E947F43FF2E9)	-0.043	1.048	-0.033	9.277	-35.828	65.735	109.06	-6.13	90.78	36.554	-50.372	24.206	-0.49026	-0.32178	-0.65103	-0.48184	21.6	13111	100
2025-3-19 12:54:55.551	WT901BLE68(490AABDC0D29)	0.336	1.003	-0.177	-5.066	0.854	34.302	90.15	-16.00	133.49	-16.758	-39.494	19.992	-0.21896	-0.37231	-0.60605	-0.66785	20.3	13111	100
2025-3-19 12:54:55.610	WT901BLE68(490AABDC0D29)	0.394	0.928	-0.146	-11.108	-0.305	47.424	89.65	-19.92	137.19	-16.758	-39.494	19.992	-0.21896	-0.37231	-0.60605	-0.66785	20.3	13111	100
2025-3-19 12:54:55.647	WT901BLE68(E947F43FF2E9)	-0.087	0.961	-0.214	3.784	-18.250	26.428	108.57	-8.84	91.76	36.554	-50.372	24.206	-0.36032	-0.59750	-0.54782	-0.46143	21.6	13111	100
2025-3-19 12:54:55.732	WT901BLE68(490AABDC0D29)	0.484	0.903	-0.136	-17.029	0.671	54.871	88.45	-24.43	141.14	-16.758	-39.494	19.992	-0.21896	-0.37231	-0.60605	-0.66785	20.3	13111	100
2025-3-19 12:54:55.745	WT901BLE68(E947F43FF2E9)	0.063	0.972	-0.222	-2.563	-90.942	13.000	108.91	-8.28	87.09	36.554	-50.372	24.206	-0.36032	-0.59750	-0.54782	-0.46143	21.6	13111	100
2025-3-19 12:54:55.820	WT901BLE68(490AABDC0D29)	0.551	0.933	-0.062	-23.621	4.089	54.443	86.39	-29.32	145.20	-16.758	-39.494	19.992	-0.04312	-0.37421	-0.57590	-0.72549	20.3	13111	100
2025-3-19 12:54:55.857	WT901BLE68(E947F43FF2E9)	-0.051	0.918	-0.237	-13.367	-42.236	-18.738	108.11	-5.41	83.07	37.240	-52.626	19.698	-0.36032	-0.59750	-0.54782	-0.46143	21.6	13111	100
2025-3-19 12:54:55.916	WT901BLE68(E947F43FF2E9)	-0.047	0.807	-0.485	4.272	62.012	-33.875	108.30	-1.81	82.81	37.240	-52.626	19.698	-0.36032	-0.59750	-0.54782	-0.46143	21.6	13111	100
2025-3-19 12:54:55.945	WT901BLE68(490AABDC0D29)	0.635	1.104	-0.047	-31.189	11.597	71.533	83.31	-34.60	150.33	-16.758	-39.494	19.992	-0.04312	-0.37421	-0.57590	-0.72549	20.3	13111	100
2025-3-19 12:54:56.30	WT901BLE68(490AABDC0D29)	0.487	1.007	0.110	-43.701	13.855	94.604	77.48	-42.06	158.04	-33.222	-30.184	12.740	-0.04312	-0.37421	-0.57590	-0.72549	20.3	13111	100
2025-3-19 12:54:56.100	WT901BLE68(E947F43FF2E9)	0.181	1.020	-0.031	-67.810	67.627	-35.217	101.73	0.41	94.32	37.240	-52.626	19.698	-0.41730	-0.51453	-0.58252	-0.47083	21.6	13111	100
2025-3-19 12:54:56.129	WT901BLE68(E947F43FF2E9)	0.052	0.931	-0.193	-24.048	47.546	-49.561	102.85	0.21	97.81	37.240	-52.626	19.698	-0.41730	-0.51453	-0.58252	-0.47083	21.6	13111	100
2025-3-19 12:54:56.151	WT901BLE68(490AABDC0D29)	-0.486	0.684	-0.158	-102.234	-25.757	69.031	68.25	-50.45	165.43	-33.222	-30.184	12.740	0.09464	-0.42755	-0.43884	-0.78458	20.3	13111	100
2025-3-19 12:54:56.211	WT901BLE68(490AABDC0D29)	0.513	0.302	-0.189	-62.134	-125.549	-136.597	68.80	-47.87	157.93	-33.222	-30.184	12.740	0.09464	-0.42755	-0.43884	-0.78458	20.3	13111	100
2025-3-19 12:54:56.250	WT901BLE68(E947F43FF2E9)	-0.047	0.949	-0.148	-11.597	4.639	11.353	101.33	0.61	98.15	39.690	-51.646	19.796	-0.41730	-0.51453	-0.58252	-0.47083	21.6	13111	100
2025-3-19 12:54:56.329	WT901BLE68(490AABDC0D29)	0.661	0.914	-0.438	-16.174	-113.770	-220.764	75.99	-29.33	144.74	-33.222	-30.184	12.740	0.09464	-0.42755	-0.43884	-0.78458	20.3	13111	100
2025-3-19 12:54:56.347	WT901BLE68(E947F43FF2E9)	-0.072	0.974	-0.181	-5.371	-14.587	3.235	100.61	0.40	98.67	39.690	-51.646	19.796	-0.41730	-0.51453	-0.58252	-0.47083	21.6	13111	100
2025-3-19 12:54:56.420	WT901BLE68(490AABDC0D29)	1.154	1.398	-0.341	46.570	-99.426	-183.960	84.17	-8.89	135.71	-31.948	-33.222	14.308	0.09464	-0.42755	-0.43884	-0.78458	20.3	13111	100
2025-3-19 12:54:56.459	WT901BLE68(E947F43FF2E9)	-0.059	0.971	-0.157	-9.705	-8.911	-7.446	99.95	1.26	97.85	39.690	-51.646	19.796	-0.43210	-0.49564	-0.58096	-0.47958	21.6	13111	100
2025-3-19 12:54:56.551	WT901BLE68(490AABDC0D29)	0.301	1.233	0.098	5.188	87.402	-16.785	89.21	2.59	136.66	-31.948	-33.222	14.308	0.09464	-0.42755	-0.43884	-0.78458	20.3	13111	100
2025-3-19 12:54:56.552	WT901BLE68(E947F43FF2E9)	-0.106	0.981	-0.154	-12.939	-10.742	-22.034	98.55	2.87	97.36	39.690	-51.646	19.796	-0.43210	-0.49564	-0.58096	-0.47958	21.6	13111	100
2025-3-19 12:54:56.631	WT901BLE68(490AABDC0D29)	-0.121	1.146	-0.360	-2.441	-27.100	30.762	89.77	0.47	138.46	-31.948	-33.222	14.308	-0.25082	-0.24835	-0.66080	-0.66229	20.3	13111	100
2025-3-19 12:54:56.667	WT901BLE68(E947F43FF2E9)	-0.208	1.020	-0.147	-8.240	-8.789	-41.504	97.66	6.10	96.90	43.708	-50.470	16.170	-0.43210	-0.49564	-0.58096	-0.47958	21.6	13111	100
2025-3-19 12:54:56.733	WT901BLE68(E947F43FF2E9)	-0.120	1.172	-0.178	-2.380	-23.254	-61.462	97.25	11.09	96.68	43.708	-50.470	16.170	-0.43210	-0.49564	-0.58096	-0.47958	21.6	13111	100
2025-3-19 12:54:56.752	WT901BLE68(490AABDC0D29)	0.129	1.026	-0.031	-4.395	2.625	28.992	89.64	-1.94	142.69	-31.948	-33.222	14.308	-0.25082	-0.24835	-0.66080	-0.66229	20.3	13111	100
2025-3-19 12:54:56.841	WT901BLE68(490AABDC0D29)	0.099	0.984	-0.161	-1.770	-10.559	23.376	90.11	-4.66	145.49	-27.244	-39.102	21.854	-0.25082	-0.24835	-0.66080	-0.66229	20.3	13111	100
2025-3-19 12:54:56.849	WT901BLE68(E947F43FF2E9)	-0.226	1.542	-0.044	-16.724	-115.173	-99.487	96.00	19.48	91.97	43.708	-50.470	16.170	-0.58609	-0.41696	-0.59399	-0.36011	21.6	13111	100
2025-3-19 12:54:56.937	WT901BLE68(E947F43FF2E9)	-0.136	0.294	-0.325	28.992	-96.497	0.366	91.43	26.88	82.35	43.708	-50.470	16.170	-0.58609	-0.41696	-0.59399	-0.36011	21.6	13111	100
2025-3-19 12:54:56.962	WT901BLE68(490AABDC0D29)	0.038	0.995	-0.161	0.549	-8.362	19.043	90.44	-6.15	149.24	-27.244	-39.102	21.854	-0.12360	-0.21445	-0.67706	-0.69296	20.3	13111	100
2025-3-19 12:54:57.77	WT901BLE68(490AABDC0D29)	0.058	0.958	-0.169	-6.592	-11.902	25.146	90.50	-7.56	152.41	-27.244	-39.102	21.854	-0.12360	-0.21445	-0.67706	-0.69296	20.3	13111	100
2025-3-19 12:54:57.78	WT901BLE68(E947F43FF2E9)	-0.333	0.594	-0.097	92.468	2.441	123.779	96.97	18.44	79.22	50.078	-46.060	7.448	-0.58609	-0.41696	-0.59399	-0.36011	21.6	13111	100
2025-3-19 12:54:57.144	WT901BLE68(490AABDC0D29)	0.258	0.976	-0.128	-1.709	-16.113	30.457	90.98	-9.98	155.20	-27.244	-39.102	21.854	-0.12360	-0.21445	-0.67706	-0.69296	20.3	13111	100
2025-3-19 12:54:57.147	WT901BLE68(E947F43FF2E9)	-0.175	1.062	0.044	77.026	-93.079	161.804	105.44	5.03	74.12	50.078	-46.060	7.448	-0.58609	-0.41696	-0.59399	-0.36011	21.6	13111	100
2025-3-19 12:54:57.235	WT901BLE68(490AABDC0D29)	0.273	0.941	-0.159	-4.272	-4.028	57.556	90.82	-13.78	158.88	-37.828	-34.104	23.716	-0.12360	-0.21445	-0.67706	-0.69296	20.3	13111	100
2025-3-19 12:54:57.267	WT901BLE68(E947F43FF2E9)	-0.172	0.955	0.129	31.799	-116.760	103.577	108.87	-3.46	60.00	50.078	-46.060	7.448	-0.48386	-0.73962	-0.35068	-0.30939	21.6	13111	100
2025-3-19 12:54:57.337	WT901BLE68(E947F43FF2E9)	-0.133	1.070	-0.028	-13.000	-32.654	52.185	109.70	-8.57	54.21	50.078	-46.060	7.448	-0.48386	-0.73962	-0.35068	-0.30939	21.6	13111	100
2025-3-19 12:54:57.351	WT901BLE68(490AABDC0D29)	0.489	0.995	-0.195	-13.550	19.836	73.425	89.94	-19.76	164.50	-37.828	-34.104	23.716	-0.12360	-0.21445	-0.67706	-0.69296	20.3	13111	100
2025-3-19 12:54:57.439	WT901BLE68(490AABDC0D29)	0.590	0.803	-0.175	-25.879	10.681	78.674	87.26	-27.12	169.75	-37.828	-34.104	23.716	0.10904	-0.23038	-0.64975	-0.71606	20.3	13111	100
2025-3-19 12:54:57.479	WT901BLE68(E947F43FF2E9)	1.588	0.935	-0.324	-5.981	-31.982	-17.944	107.42	-8.15	54.15	32.732	-59.486	3.038	-0.48386	-0.73962	-0.35068	-0.30939	21.6	13111	100
2025-3-19 12:54:57.537	WT901BLE68(E947F43FF2E9)	-0.009	1.373	-0.503	-27.283	198.975	-23.438	104.31	-3.41	59.80	32.732	-59.486	3.038	-0.48386	-0.73962	-0.35068	-0.30939	21.6	13111	100
2025-3-19 12:54:57.562	WT901BLE68(490AABDC0D29)	0.484	0.948	-0.086	-41.809	36.438	78.125	82.60	-33.67	177.03	-37.828	-34.104	23.716	0.10904	-0.23038	-0.64975	-0.71606	20.3	13111	100
2025-3-19 12:54:57.621	WT901BLE68(490AABDC0D29)	-0.375	1.318	0.081	-79.956	23.132	132.141	72.44	-42.91	-171.77	-50.078	-11.270	13.426	0.10904	-0.23038	-0.64975	-0.71606	20.3	13111	100
2025-3-19 12:54:57.657	WT901BLE68(E947F43FF2E9)	-0.378	1.202	-0.584	4.089	40.161	-35.522	102.01	-0.98	75.51	32.732	-59.486	3.038	-0.49695	-0.60519	-0.48462	-0.38962	21.6	13111	100
2025-3-19 12:54:57.739	WT901BLE68(490AABDC0D29)	0.325	-0.135	0.091	-76.965	11.536	-10.803	60.06	-46.64	-162.23	-50.078	-11.270	13.426	0.10904	-0.23038	-0.64975	-0.71606	20.3	13111	100
2025-3-19 12:54:57.749	WT901BLE68(E947F43FF2E9)	-0.169	0.881	-0.157	-9.521	-6.531	-16.479	101.07	3.14	78.53	32.732	-59.486	3.038	-0.49695	-0.60519	-0.48462	-0.38962	21.6	13111	100
2025-3-19 12:54:57.838	WT901BLE68(490AABDC0D29)	0.799	0.816	-0.176	2.502	-71.289	-206.726	71.13	-33.43	-177.28	-50.078	-11.270	13.426	0.18567	-0.22067	-0.56241	-0.77487	20.3	13111	100
2025-3-19 12:54:57.870	WT901BLE68(E947F43FF2E9)	-0.058	0.952	-0.218	-4.456	0.854	12.207	100.51	2.58	78.76	41.258	-54.978	5.292	-0.49695	-0.60519	-0.48462	-0.38962	21.6	13111	100
2025-3-19 12:54:57.949	WT901BLE68(490AABDC0D29)	1.241	1.146	-0.210	25.574	-117.859	-218.201	81.52	-12.73	168.72	-50.078	-11.270	13.426	0.18567	-0.22067	-0.56241	-0.77487	20.3	13111	100
2025-3-19 12:54:57.959	WT901BLE68(E947F43FF2E9)	-0.033	0.979	-0.173	-4.883	-12.268	2.747	99.94	2.24	77.63	41.258	-54.978	5.292	-0.49695	-0.60519	-0.48462	-0.38962	21.6	13111	100
2025-3-19 12:54:58.39	WT901BLE68(490AABDC0D29)	-0.771	1.382	0.072	13.977	61.523	-82.397	87.34	1.24	164.47	-34.202	-36.260	30.576	0.18567	-0.22067	-0.56241	-0.77487	20.3	13111	100
2025-3-19 12:54:58.78	WT901BLE68(E947F43FF2E9)	-0.063	0.984	-0.176	-10.681	-6.836	-24.170	99.19	3.47	76.95	41.258	-54.978	5.292	-0.52734	-0.57761	-0.49280	-0.38116	21.6	13111	100
2025-3-19 12:54:58.142	WT901BLE68(E947F43FF2E9)	-0.188	0.984	-0.171	-9.827	-4.517	-43.091	98.21	7.03	77.23	41.258	-54.978	5.292	-0.52734	-0.57761	-0.49280	-0.38116	21.6	13111	100
2025-3-19 12:54:58.162	WT901BLE68(490AABDC0D29)	0.050	1.197	-0.331	6.226	-92.773	-3.479	87.86	1.22	169.39	-34.202	-36.260	30.576	0.18567	-0.22067	-0.56241	-0.77487	20.3	13111	100
2025-3-19 12:54:58.220	WT901BLE68(490AABDC0D29)	0.024	1.042	-0.079	-5.676	9.399	23.438	87.71	-0.55	169.49	-34.202	-36.260	30.576	-0.04852	-0.06860	-0.68900	-0.71982	20.3	13111	100
2025-3-19 12:54:58.257	WT901BLE68(E947F43FF2E9)	-0.164	1.212	-0.221	-12.634	-8.179	-74.341	97.20	12.72	77.85	48.118	-49.490	2.058	-0.52734	-0.57761	-0.49280	-0.38116	21.6	13111	100
2025-3-19 12:54:58.347	WT901BLE68(E947F43FF2E9)	0.366	1.360	-0.088	6.226	-71.106	-115.051	96.03	23.30	74.06	48.118	-49.490	2.058	-0.52734	-0.57761	-0.49280	-0.38116	21.6	13111	100
2025-3-19 12:54:58.372	WT901BLE68(490AABDC0D29)	0.075	0.966	-0.104	3.723	-23.010	28.809	87.71	-3.11	171.19	-34.202	-36.260	30.576	-0.04852	-0.06860	-0.68900	-0.71982	20.3	13111	100
2025-3-19 12:54:58.440	WT901BLE68(490AABDC0D29)	0.144	1.016	-0.155	-3.540	-10.742	19.897	88.26	-5.31	173.22	-35.378	-36.750	32.242	-0.04852	-0.06860	-0.68900	-0.71982	20.3	13111	100
2025-3-19 12:54:58.470	WT901BLE68(E947F43FF2E9)	-0.228	0.201	-0.272	61.157	-108.887	45.227	93.86	27.80	61.99	48.118	-49.490	2.058	-0.63733	-0.57513	-0.47549	-0.19189	21.6	13111	100
2025-3-19 12:54:58.550	WT901BLE68(490AABDC0D29)	0.116	0.974	-0.120	-6.226	-11.658	32.715	88.25	-7.67	175.16	-35.378	-36.750	32.242	-0.04852	-0.06860	-0.68900	-0.71982	20.3	13111	100
2025-3-19 12:54:58.559	WT901BLE68(E947F43FF2E9)	-0.513	0.667	0.021	100.281	-32.227	137.573	101.28	16.08	56.85	48.118	-49.490	2.058	-0.63733	-0.57513	-0.47549	-0.19189	21.6	13111	100
2025-3-19 12:54:58.641	WT901BLE68(490AABDC0D29)	0.299	0.955	-0.089	-10.193	0.916	36.804	87.96	-10.42	177.16	-35.378	-36.750	32.242	0.04727	-0.08246	-0.68948	-0.71799	20.3	13111	100
2025-3-19 12:54:58.678	WT901BLE68(E947F43FF2E9)	-0.306	1.114	0.212	49.255	-102.539	148.071	106.38	3.67	48.21	33.614	-58.898	-2.450	-0.63733	-0.57513	-0.47549	-0.19189	21.6	13111	100
2025-3-19 12:54:58.743	WT901BLE68(E947F43FF2E9)	-0.140	1.037	-0.153	3.052	7.507	80.688	106.21	-4.52	43.23	33.614	-58.898	-2.450	-0.63733	-0.57513	-0.47549	-0.19189	21.6	13111	100
2025-3-19 12:54:58.759	WT901BLE68(490AABDC0D29)	0.319	0.986	-0.045	-10.864	-0.854	52.429	87.62	-14.75	179.58	-35.378	-36.750	32.242	0.04727	-0.08246	-0.68948	-0.71799	20.3	13111	100
2025-3-19 12:54:58.849	WT901BLE68(490AABDC0D29)	0.474	1.012	-0.067	-9.949	-2.869	60.120	86.97	-19.94	-177.24	-46.158	-28.322	31.752	0.04727	-0.08246	-0.68948	-0.71799	20.3	13111	100
2025-3-19 12:54:58.889	WT901BLE68(E947F43FF2E9)	0.062	0.984	-0.140	-13.367	-44.678	15.320	105.68	-6.90	39.70	33.614	-58.898	-2.450	-0.56021	-0.75867	-0.22903	-0.24081	21.6	13111	100
2025-3-19 12:54:58.947	WT901BLE68(E947F43FF2E9)	-0.176	0.837	-0.276	-11.475	6.409	-26.855	103.70	-4.64	38.76	33.614	-58.898	-2.450	-0.56021	-0.75867	-0.22903	-0.24081	21.6	13111	100
2025-3-19 12:54:58.971	WT901BLE68(490AABDC0D29)	0.536	0.772	-0.125	-26.001	-16.418	74.890	85.62	-26.63	-175.48	-46.158	-28.322	31.752	0.04727	-0.08246	-0.68948	-0.71799	20.3	13111	100
2025-3-19 12:54:59.43	WT901BLE68(490AABDC0D29)	0.607	1.114	-0.033	-33.997	14.465	77.942	82.48	-33.05	-171.78	-46.158	-28.322	31.752	0.25623	-0.17487	-0.63794	-0.70477	20.3	13111	100
2025-3-19 12:54:59.98	WT901BLE68(E947F43FF2E9)	-0.152	0.880	-0.519	-21.423	148.560	-46.570	102.01	-2.05	43.12	24.990	-58.212	-4.900	-0.56021	-0.75867	-0.22903	-0.24081	21.6	13111	100
2025-3-19 12:54:59.149	WT901BLE68(490AABDC0D29)	-0.661	1.308	-0.120	-49.988	30.579	116.150	75.82	-41.98	-164.30	-46.158	-28.322	31.752	0.25623	-0.17487	-0.63794	-0.70477	20.3	13111	100
2025-3-19 12:54:59.159	WT901BLE68(E947F43FF2E9)	-0.287	1.135	-0.167	0.183	54.626	-8.667	100.39	0.34	54.41	24.990	-58.212	-4.900	-0.56021	-0.75867	-0.22903	-0.24081	21.6	13111	100
2025-3-19 12:54:59.244	WT901BLE68(490AABDC0D29)	0.274	-0.008	0.380	-7.446	44.128	-22.888	68.40	-44.08	-153.29	-54.978	-9.996	24.304	0.25623	-0.17487	-0.63794	-0.70477	20.3	13111	100
2025-3-19 12:54:59.279	WT901BLE68(E947F43FF2E9)	-0.123	0.886	-0.225	-11.108	-2.319	-14.709	99.66	2.54	57.60	24.990	-58.212	-4.900	-0.57953	-0.65897	-0.37775	-0.29514	21.6	13111	100
2025-3-19 12:54:59.360	WT901BLE68(490AABDC0D29)	0.828	0.735	-0.156	47.485	6.531	-192.505	81.46	-30.25	-164.31	-54.978	-9.996	24.304	0.25623	-0.17487	-0.63794	-0.70477	20.3	13111	100
2025-3-19 12:54:59.368	WT901BLE68(E947F43FF2E9)	-0.102	0.972	-0.158	-11.475	1.831	-2.930	98.35	2.88	57.60	24.990	-58.212	-4.900	-0.57953	-0.65897	-0.37775	-0.29514	21.6	13111	100
2025-3-19 12:54:59.450	WT901BLE68(490AABDC0D29)	0.388	1.173	-0.117	97.168	10.315	-183.533	90.68	-10.74	-162.38	-54.978	-9.996	24.304	0.14572	0.10455	-0.72580	-0.66403	20.3	13111	100
2025-3-19 12:54:59.487	WT901BLE68(E947F43FF2E9)	-0.128	0.991	-0.139	-13.733	-3.540	-14.771	97.08	4.03	57.47	32.438	-53.998	-6.272	-0.57953	-0.65897	-0.37775	-0.29514	21.6	13111	100
2025-3-19 12:54:59.547	WT901BLE68(E947F43FF2E9)	-0.188	1.004	-0.101	-16.418	4.211	-17.883	95.75	5.69	57.91	32.438	-53.998	-6.272	-0.57953	-0.65897	-0.37775	-0.29514	21.6	13111	100
2025-3-19 12:54:59.571	WT901BLE68(490AABDC0D29)	0.269	1.288	0.081	65.125	58.105	-139.038	98.88	3.63	-154.33	-54.978	-9.996	24.304	0.14572	0.10455	-0.72580	-0.66403	20.3	13111	100
2025-3-19 12:54:59.645	WT901BLE68(490AABDC0D29)	-0.031	1.068	-0.208	5.432	12.024	-51.208	101.12	10.70	-153.14	-25.578	-38.906	39.298	0.14572	0.10455	-0.72580	-0.66403	20.3	13111	100
2025-3-19 12:54:59.668	WT901BLE68(E947F43FF2E9)	-0.251	0.985	-0.070	-16.541	-4.028	-31.494	94.14	8.42	58.19	32.438	-53.998	-6.272	-0.62680	-0.60617	-0.40363	-0.27682	21.6	13111	100
2025-3-19 12:54:59.756	WT901BLE68(E947F43FF2E9)	-0.361	0.970	-0.052	-18.127	-2.258	-42.542	92.54	12.33	57.82	32.438	-53.998	-6.272	-0.62680	-0.60617	-0.40363	-0.27682	21.6	13111	100
2025-3-19 12:54:59.781	WT901BLE68(490AABDC0D29)	-0.064	0.888	-0.329	-10.010	48.828	16.052	101.63	10.35	-149.86	-25.578	-38.906	39.298	0.14572	0.10455	-0.72580	-0.66403	20.3	13111	100
2025-3-19 12:54:59.839	WT901BLE68(490AABDC0D29)	0.207	0.861	-0.267	-15.381	23.621	26.917	100.52	6.16	-147.58	-25.578	-38.906	39.298	0.14767	0.24695	-0.72678	-0.62360	20.3	13111	100
2025-3-19 12:54:59.876	WT901BLE68(E947F43FF2E9)	-0.351	0.947	-0.021	-13.306	-2.991	-57.678	90.93	17.00	58.04	41.552	-49.196	-10.486	-0.62680	-0.60617	-0.40363	-0.27682	21.6	13111	100
2025-3-19 12:54:59.958	WT901BLE68(490AABDC0D29)	0.404	0.852	-0.273	-16.418	55.115	30.457	100.23	3.12	-142.54	-25.578	-38.906	39.298	0.14767	0.24695	-0.72678	-0.62360	20.3	13111	100
2025-3-19 12:54:59.968	WT901BLE68(E947F43FF2E9)	-0.532	0.957	0.015	-18.555	8.179	-77.332	89.63	23.29	59.15	41.552	-49.196	-10.486	-0.62680	-0.60617	-0.40363	-0.27682	21.6	13111	100
2025-3-19 12:55:0.51	WT901BLE68(490AABDC0D29)	0.195	0.713	-0.545	-49.438	-87.830	147.827	99.38	0.59	-142.38	-29.400	-37.436	34.790	0.14767	0.24695	-0.72678	-0.62360	20.3	13111	100
2025-3-19 12:55:0.86	WT901BLE68(E947F43FF2E9)	-0.645	0.871	-0.051	-39.307	-13.855	-93.079	87.08	31.37	58.90	41.552	-49.196	-10.486	-0.72214	-0.44351	-0.50595	-0.16034	21.6	13111	100
2025-3-19 12:55:0.148	WT901BLE68(E947F43FF2E9)	-0.777	1.412	0.246	-65.735	-19.409	-77.698	80.21	38.78	55.93	41.552	-49.196	-10.486	-0.72214	-0.44351	-0.50595	-0.16034	21.6	13111	100
2025-3-19 12:55:0.169	WT901BLE68(490AABDC0D29)	-0.100	1.099	-0.085	0.610	-42.236	16.724	97.71	-7.42	-149.46	-29.400	-37.436	34.790	0.14767	0.24695	-0.72678	-0.62360	20.3	13111	100
2025-3-19 12:55:0.259	WT901BLE68(490AABDC0D29)	0.241	1.445	-0.031	-15.015	-20.325	17.334	97.62	-3.45	-152.31	-29.400	-37.436	34.790	0.18048	0.15765	-0.73480	-0.63446	20.3	13111	100
2025-3-19 12:55:0.296	WT901BLE68(E947F43FF2E9)	0.151	0.196	-0.123	-39.307	-38.513	-17.395	70.80	43.02	52.25	52.528	-30.478	-17.444	-0.72214	-0.44351	-0.50595	-0.16034	21.6	13111	100
2025-3-19 12:55:0.358	WT901BLE68(E947F43FF2E9)	-0.460	0.293	-0.083	28.503	114.929	118.164	76.27	38.59	58.97	52.528	-30.478	-17.444	-0.72214	-0.44351	-0.50595	-0.16034	21.6	13111	100
2025-3-19 12:55:0.379	WT901BLE68(490AABDC0D29)	0.110	0.980	-0.211	6.287	-33.936	-2.808	97.66	-4.86	-153.73	-29.400	-37.436	34.790	0.18048	0.15765	-0.73480	-0.63446	20.3	13111	100
2025-3-19 12:55:0.448	WT901BLE68(490AABDC0D29)	0.012	0.942	-0.262	-4.761	3.845	5.981	98.06	-5.03	-152.62	-35.476	-33.614	37.044	0.18048	0.15765	-0.73480	-0.63446	20.3	13111	100
2025-3-19 12:55:0.477	WT901BLE68(E947F43FF2E9)	-0.622	0.842	0.109	60.486	23.987	169.556	87.04	23.91	68.91	52.528	-30.478	-17.444	-0.62933	-0.51053	-0.49017	-0.32077	21.6	13111	100
2025-3-19 12:55:0.562	WT901BLE68(490AABDC0D29)	0.203	0.935	-0.222	-7.263	5.676	14.160	97.67	-6.13	-151.15	-35.476	-33.614	37.044	0.18048	0.15765	-0.73480	-0.63446	20.3	13111	100
2025-3-19 12:55:0.569	WT901BLE68(E947F43FF2E9)	-0.308	1.155	-0.127	52.551	11.780	139.893	93.21	9.27	72.15	52.528	-30.478	-17.444	-0.62933	-0.51053	-0.49017	-0.32077	21.6	13111	100
2025-3-19 12:55:0.652	WT901BLE68(490AABDC0D29)	0.215	0.941	-0.220	-16.418	-8.972	23.560	97.29	-8.11	-151.03	-35.476	-33.614	37.044	0.22162	0.13864	-0.73483	-0.62576	20.3	13111	100
2025-3-19 12:55:0.687	WT901BLE68(E947F43FF2E9)	-0.024	1.235	-0.044	33.447	-46.692	111.328	97.03	-2.13	66.56	30.380	-58.604	-2.646	-0.62933	-0.51053	-0.49017	-0.32077	21.6	13111	100
2025-3-19 12:55:0.772	WT901BLE68(490AABDC0D29)	0.252	0.957	-0.255	-8.728	-11.719	34.790	96.17	-10.71	-150.35	-35.476	-33.614	37.044	0.22162	0.13864	-0.73483	-0.62576	20.3	13111	100
2025-3-19 12:55:0.777	WT901BLE68(E947F43FF2E9)	0.066	1.106	-0.046	16.907	-63.110	56.152	99.82	-7.87	60.21	30.380	-58.604	-2.646	-0.62933	-0.51053	-0.49017	-0.32077	21.6	13111	100
2025-3-19 12:55:0.861	WT901BLE68(490AABDC0D29)	0.366	0.917	-0.213	-13.916	3.723	33.630	95.09	-13.82	-150.02	-40.964	-30.282	34.888	0.22162	0.13864	-0.73483	-0.62576	20.3	13111	100
2025-3-19 12:55:0.897	WT901BLE68(E947F43FF2E9)	0.062	0.938	-0.116	1.648	-19.226	9.338	100.42	-8.99	58.02	30.380	-58.604	-2.646	-0.53448	-0.69742	-0.32159	-0.35272	21.6	13111	100
2025-3-19 12:55:0.960	WT901BLE68(E947F43FF2E9)	-0.021	0.856	-0.205	-0.305	-33.020	-2.502	100.51	-8.13	55.74	30.380	-58.604	-2.646	-0.53448	-0.69742	-0.32159	-0.35272	21.6	13111	100
2025-3-19 12:55:0.980	WT901BLE68(490AABDC0D29)	0.403	0.944	-0.165	-27.283	14.893	53.650	93.37	-18.36	-148.65	-40.964	-30.282	34.888	0.22162	0.13864	-0.73483	-0.62576	20.3	13111	100
2025-3-19 12:55:1.41	WT901BLE68(490AABDC0D29)	0.526	0.877	-0.153	-43.030	-1.343	68.298	90.03	-24.30	-146.99	-40.964	-30.282	34.888	0.34775	0.04538	-0.70139	-0.62045	20.3	13111	100
2025-3-19 12:55:1.78	WT901BLE68(E947F43FF2E9)	-0.167	0.864	-0.175	-13.245	20.203	-49.011	100.32	-5.38	54.27	25.284	-59.878	-3.724	-0.53448	-0.69742	-0.32159	-0.35272	21.6	13111	100
2025-3-19 12:55:1.229	WT901BLE68(490AABDC0D29)	0.467	1.311	-0.028	-49.805	37.231	82.275	85.09	-30.47	-142.99	-40.964	-30.282	34.888	0.34775	0.04538	-0.70139	-0.62045	20.3	13111	100
2025-3-19 12:55:1.230	WT901BLE68(E947F43FF2E9)	0.224	1.242	-0.267	-14.709	165.222	-102.112	97.31	0.35	66.59	25.284	-59.878	-3.724	-0.53448	-0.69742	-0.32159	-0.35272	21.6	13111	100
2025-3-19 12:55:1.251	WT901BLE68(490AABDC0D29)	-0.583	0.898	-0.399	-41.443	20.264	71.228	76.96	-38.79	-136.35	-51.254	-14.406	23.520	0.34775	0.04538	-0.70139	-0.62045	20.3	13111	100
2025-3-19 12:55:1.287	WT901BLE68(E947F43FF2E9)	-0.162	2.078	0.330	-6.958	11.597	-26.917	99.12	3.04	74.99	25.284	-59.878	-3.724	-0.53448	-0.69742	-0.32159	-0.35272	21.6	13111	100
2025-3-19 12:55:1.371	WT901BLE68(490AABDC0D29)	0.271	0.231	-0.109	67.688	-141.602	-90.576	75.44	-38.03	-131.89	-51.254	-14.406	23.520	0.34775	0.04538	-0.70139	-0.62045	20.3	13111	100
2025-3-19 12:55:1.377	WT901BLE68(E947F43FF2E9)	-0.149	0.980	-0.182	-4.333	1.221	-9.888	99.28	6.77	77.85	25.284	-59.878	-3.724	-0.53165	-0.56720	-0.50797	-0.37079	21.6	13111	100
2025-3-19 12:55:1.460	WT901BLE68(490AABDC0D29)	0.618	0.849	0.018	69.214	10.620	-202.576	87.21	-21.35	-139.42	-51.254	-14.406	23.520	0.32782	0.16553	-0.68619	-0.62784	20.3	13111	100
2025-3-19 12:55:1.497	WT901BLE68(E947F43FF2E9)	-0.209	0.973	-0.234	3.174	0.916	-19.165	99.47	7.85	79.18	37.730	-54.194	1.470	-0.53165	-0.56720	-0.50797	-0.37079	21.6	13111	100
2025-3-19 12:55:1.559	WT901BLE68(E947F43FF2E9)	-0.150	0.962	-0.207	-2.808	1.831	-32.349	99.46	10.18	79.33	37.730	-54.194	1.470	-0.53165	-0.56720	-0.50797	-0.37079	21.6	13111	100
2025-3-19 12:55:1.582	WT901BLE68(490AABDC0D29)	0.271	1.301	-0.082	56.580	90.149	-202.637	94.13	-0.83	-136.01	-51.254	-14.406	23.520	0.32782	0.16553	-0.68619	-0.62784	20.3	13111	100
2025-3-19 12:55:1.671	WT901BLE68(490AABDC0D29)	0.145	1.250	0.060	38.391	60.913	-99.182	99.89	11.46	-125.52	-19.894	-37.828	31.556	0.32782	0.16553	-0.68619	-0.62784	20.3	13111	100
2025-3-19 12:55:1.679	WT901BLE68(E947F43FF2E9)	-0.337	0.928	-0.202	-4.761	-1.709	-53.894	99.46	14.12	79.46	37.730	-54.194	1.470	-0.56491	-0.51474	-0.55963	-0.32034	21.6	13111	100
2025-3-19 12:55:1.769	WT901BLE68(E947F43FF2E9)	-0.437	1.000	-0.215	-4.028	-7.507	-56.396	99.42	19.19	79.79	37.730	-54.194	1.470	-0.56491	-0.51474	-0.55963	-0.32034	21.6	13111	100
2025-3-19 12:55:1.791	WT901BLE68(490AABDC0D29)	-0.200	1.102	-0.041	-7.080	8.667	-19.470	100.71	15.52	-125.26	-19.894	-37.828	31.556	0.32782	0.16553	-0.68619	-0.62784	20.3	13111	100
2025-3-19 12:55:1.851	WT901BLE68(490AABDC0D29)	-0.274	0.980	-0.276	-11.047	31.250	36.804	99.20	12.68	-125.93	-19.894	-37.828	31.556	0.22693	0.40222	-0.64426	-0.60956	20.3	13111	100
2025-3-19 12:55:1.888	WT901BLE68(E947F43FF2E9)	-0.519	0.957	-0.127	-14.343	-9.644	-51.941	98.46	24.59	79.09	48.020	-45.766	0.196	-0.56491	-0.51474	-0.55963	-0.32034	21.6	13111	100
2025-3-19 12:55:1.972	WT901BLE68(490AABDC0D29)	-0.160	0.928	-0.271	-9.033	13.245	13.794	98.75	8.95	-124.99	-19.894	-37.828	31.556	0.22693	0.40222	-0.64426	-0.60956	20.3	13111	100
2025-3-19 12:55:2.9	WT901BLE68(E947F43FF2E9)	-0.603	0.814	-0.125	-8.667	0.183	-48.218	97.48	29.76	78.92	48.020	-45.766	0.196	-0.56491	-0.51474	-0.55963	-0.32034	21.6	13111	100
2025-3-19 12:55:2.59	WT901BLE68(490AABDC0D29)	-0.082	0.843	-0.221	-6.470	-5.249	23.071	98.53	7.28	-123.37	-18.130	-39.494	30.282	0.22693	0.40222	-0.64426	-0.60956	20.3	13111	100
2025-3-19 12:55:2.97	WT901BLE68(E947F43FF2E9)	-0.622	0.819	-0.128	-12.085	-14.038	-77.698	96.66	35.81	79.18	48.020	-45.766	0.196	-0.65024	-0.39063	-0.61874	-0.20404	21.6	13111	100
2025-3-19 12:55:2.182	WT901BLE68(490AABDC0D29)	0.157	0.813	-0.120	-32.654	-13.245	49.805	96.58	2.98	-124.66	-18.130	-39.494	30.282	0.22693	0.40222	-0.64426	-0.60956	20.3	13111	100
2025-3-19 12:55:2.218	WT901BLE68(E947F43FF2E9)	-0.677	0.629	-0.191	-34.729	-28.687	-95.337	93.26	44.12	77.20	48.020	-45.766	0.196	-0.65024	-0.39063	-0.61874	-0.20404	21.6	13111	100
2025-3-19 12:55:2.272	WT901BLE68(490AABDC0D29)	0.061	1.084	0.083	-8.118	-71.472	68.787	95.56	-1.94	-137.42	-18.130	-39.494	30.282	0.25293	0.23355	-0.70306	-0.62213	20.3	13111	100
2025-3-19 12:55:2.308	WT901BLE68(E947F43FF2E9)	0.137	1.139	0.206	-74.524	-41.138	-87.219	84.40	52.81	71.08	56.840	-23.422	-6.272	-0.65024	-0.39063	-0.61874	-0.20404	21.6	13111	100
2025-3-19 12:55:2.370	WT901BLE68(E947F43FF2E9)	-0.185	-0.068	0.091	-47.241	-4.150	24.780	74.80	55.17	66.57	56.840	-23.422	-6.272	-0.65024	-0.39063	-0.61874	-0.20404	21.6	13111	100
2025-3-19 12:55:2.392	WT901BLE68(490AABDC0D29)	0.140	1.521	0.089	-10.498	-22.400	33.997	95.62	-5.10	-141.61	-18.130	-39.494	30.282	0.25293	0.23355	-0.70306	-0.62213	20.3	13111	100
2025-3-19 12:55:2.450	WT901BLE68(490AABDC0D29)	0.243	1.031	-0.169	-10.010	-7.629	14.282	94.86	-7.16	-143.18	-31.948	-36.652	31.164	0.25293	0.23355	-0.70306	-0.62213	20.3	13111	100
2025-3-19 12:55:2.490	WT901BLE68(E947F43FF2E9)	-0.531	0.548	-0.118	11.292	29.175	202.881	82.18	41.24	77.16	56.840	-23.422	-6.272	-0.64676	-0.41397	-0.55008	-0.32806	21.6	13111	100
2025-3-19 12:55:2.580	WT901BLE68(E947F43FF2E9)	-0.742	1.106	-0.035	87.830	-34.241	214.905	89.14	19.73	77.95	56.840	-23.422	-6.272	-0.64676	-0.41397	-0.55008	-0.32806	21.6	13111	100
2025-3-19 12:55:2.638	WT901BLE68(490AABDC0D29)	0.208	0.948	-0.134	-12.146	0.000	12.451	94.04	-8.65	-143.28	-31.948	-36.652	31.164	0.25293	0.23355	-0.70306	-0.62213	20.3	13111	100
2025-3-19 12:55:2.662	WT901BLE68(490AABDC0D29)	0.261	0.940	-0.156	-9.277	1.709	30.518	93.41	-11.06	-142.82	-31.948	-36.652	31.164	0.29022	0.16351	-0.70761	-0.62308	20.3	13111	100
2025-3-19 12:55:2.699	WT901BLE68(E947F43FF2E9)	-0.318	1.221	-0.032	70.740	-9.583	160.706	96.59	3.27	74.24	38.122	-55.860	-0.098	-0.64676	-0.41397	-0.55008	-0.32806	21.6	13111	100
2025-3-19 12:55:2.782	WT901BLE68(490AABDC0D29)	0.288	1.006	-0.110	-21.057	-6.165	50.842	92.42	-14.52	-142.42	-31.948	-36.652	31.164	0.29022	0.16351	-0.70761	-0.62308	20.3	13111	100
2025-3-19 12:55:2.789	WT901BLE68(E947F43FF2E9)	-0.051	1.101	0.025	23.010	-109.680	79.224	100.23	-5.06	64.35	38.122	-55.860	-0.098	-0.64676	-0.41397	-0.55008	-0.32806	21.6	13111	100
2025-3-19 12:55:2.872	WT901BLE68(490AABDC0D29)	0.527	0.876	-0.108	-37.842	-0.610	73.792	90.29	-20.33	-142.27	-40.964	-29.890	27.048	0.29022	0.16351	-0.70761	-0.62308	20.3	13111	100
2025-3-19 12:55:2.908	WT901BLE68(E947F43FF2E9)	1.963	0.913	-0.097	-4.700	-74.341	4.089	101.38	-5.44	55.25	38.122	-55.860	-0.098	-0.56668	-0.68460	-0.34128	-0.30594	21.6	13111	100
2025-3-19 12:55:2.969	WT901BLE68(E947F43FF2E9)	-0.217	1.329	-0.822	-41.748	238.464	-20.386	98.30	-0.69	61.39	38.122	-55.860	-0.098	-0.56668	-0.68460	-0.34128	-0.30594	21.6	13111	100
2025-3-19 12:55:2.992	WT901BLE68(490AABDC0D29)	0.512	0.875	-0.115	-54.749	20.447	69.092	85.97	-27.40	-140.98	-40.964	-29.890	27.048	0.29022	0.16351	-0.70761	-0.62308	20.3	13111	100
2025-3-19 12:55:3.82	WT901BLE68(490AABDC0D29)	-0.950	1.214	-0.268	-66.833	21.179	98.145	77.90	-34.88	-136.09	-40.964	-29.890	27.048	0.47711	-0.00552	-0.62714	-0.61557	20.3	13111	100
2025-3-19 12:55:3.89	WT901BLE68(E947F43FF2E9)	-0.208	1.337	-0.281	13.977	44.861	-42.114	98.84	3.45	72.08	38.220	-56.448	0.000	-0.56668	-0.68460	-0.34128	-0.30594	21.6	13111	100
2025-3-19 12:55:3.201	WT901BLE68(490AABDC0D29)	0.115	-0.030	0.140	38.208	-72.815	-60.242	73.49	-36.17	-130.53	-40.964	-29.890	27.048	0.47711	-0.00552	-0.62714	-0.61557	20.3	13111	100
2025-3-19 12:55:3.210	WT901BLE68(E947F43FF2E9)	-0.077	0.983	-0.159	-3.723	-9.216	-1.465	99.07	6.47	75.16	38.220	-56.448	0.000	-0.56668	-0.68460	-0.34128	-0.30594	21.6	13111	100
2025-3-19 12:55:3.260	WT901BLE68(490AABDC0D29)	0.552	0.771	0.183	65.308	30.029	-174.866	85.08	-22.12	-136.93	-43.512	-25.088	18.620	0.47711	-0.00552	-0.62714	-0.61557	20.3	13111	100
2025-3-19 12:55:3.299	WT901BLE68(E947F43FF2E9)	-0.143	0.960	-0.190	-3.296	7.507	-20.752	98.91	7.35	75.51	38.220	-56.448	0.000	-0.54797	-0.56302	-0.50827	-0.35251	21.6	13111	100
2025-3-19 12:55:3.382	WT901BLE68(490AABDC0D29)	0.299	1.284	0.044	76.111	41.016	-148.438	92.77	-5.30	-134.47	-43.512	-25.088	18.620	0.47711	-0.00552	-0.62714	-0.61557	20.3	13111	100
2025-3-19 12:55:3.419	WT901BLE68(E947F43FF2E9)	-0.209	0.992	-0.183	-8.667	0.305	-40.466	98.68	10.07	76.39	38.220	-56.448	0.000	-0.54797	-0.56302	-0.50827	-0.35251	21.6	13111	100
2025-3-19 12:55:3.469	WT901BLE68(490AABDC0D29)	0.235	1.090	0.045	27.039	48.218	-126.160	97.76	7.00	-128.40	-43.512	-25.088	18.620	0.23251	0.38766	-0.65060	-0.61014	20.3	13111	100
2025-3-19 12:55:3.508	WT901BLE68(E947F43FF2E9)	-0.392	0.973	-0.194	-13.123	-4.333	-56.885	97.96	14.37	76.88	46.060	-50.862	-0.392	-0.54797	-0.56302	-0.50827	-0.35251	21.6	13111	100
2025-3-19 12:55:3.592	WT901BLE68(490AABDC0D29)	0.008	1.072	0.023	-4.883	41.504	-52.002	99.21	13.79	-124.54	-43.512	-25.088	18.620	0.23251	0.38766	-0.65060	-0.61014	20.3	13111	100
2025-3-19 12:55:3.599	WT901BLE68(E947F43FF2E9)	-0.509	0.889	-0.111	-15.259	-1.770	-57.922	97.01	19.92	77.36	46.060	-50.862	-0.392	-0.54797	-0.56302	-0.50827	-0.35251	21.6	13111	100
2025-3-19 12:55:3.682	WT901BLE68(490AABDC0D29)	-0.109	0.836	-0.203	-20.508	13.672	25.818	97.87	13.02	-123.06	-17.346	-44.688	23.814	0.23251	0.38766	-0.65060	-0.61014	20.3	13111	100
2025-3-19 12:55:3.717	WT901BLE68(E947F43FF2E9)	-0.483	0.804	-0.034	-26.672	10.132	-72.021	95.26	26.52	78.26	46.060	-50.862	-0.392	-0.63055	-0.42706	-0.58932	-0.26944	21.6	13111	100
2025-3-19 12:55:3.780	WT901BLE68(E947F43FF2E9)	-0.722	0.786	-0.041	-27.222	-16.113	-82.825	93.11	33.57	79.05	46.060	-50.862	-0.392	-0.63055	-0.42706	-0.58932	-0.26944	21.6	13111	100
2025-3-19 12:55:3.802	WT901BLE68(490AABDC0D29)	0.247	0.884	-0.295	-9.766	46.692	24.719	97.06	9.03	-122.28	-17.346	-44.688	23.814	0.23251	0.38766	-0.65060	-0.61014	20.3	13111	100
2025-3-19 12:55:3.861	WT901BLE68(490AABDC0D29)	0.070	0.799	-0.127	-20.203	-10.742	84.595	96.59	3.45	-118.65	-17.346	-44.688	23.814	0.32660	0.36066	-0.64618	-0.58789	20.3	13111	100
2025-3-19 12:55:3.899	WT901BLE68(E947F43FF2E9)	-0.445	0.978	-0.140	-35.950	-32.898	-106.140	89.38	42.17	77.60	58.604	-27.440	-6.076	-0.63055	-0.42706	-0.58932	-0.26944	21.6	13111	100
2025-3-19 12:55:3.982	WT901BLE68(490AABDC0D29)	0.217	1.241	-0.482	-5.981	-147.400	102.966	95.44	-3.53	-131.91	-17.346	-44.688	23.814	0.32660	0.36066	-0.64618	-0.58789	20.3	13111	100
2025-3-19 12:55:3.989	WT901BLE68(E947F43FF2E9)	0.227	0.551	0.185	-99.487	-44.373	-109.619	76.92	53.45	69.42	58.604	-27.440	-6.076	-0.63055	-0.42706	-0.58932	-0.26944	21.6	13111	100
2025-3-19 12:55:4.71	WT901BLE68(490AABDC0D29)	0.237	1.395	0.169	-14.709	-24.536	62.866	95.23	-9.23	-135.63	-38.710	-38.612	27.244	0.32660	0.36066	-0.64618	-0.58789	20.3	13111	100
2025-3-19 12:55:4.109	WT901BLE68(E947F43FF2E9)	-0.588	0.087	-0.244	-40.833	85.266	179.016	72.85	50.73	73.15	58.604	-27.440	-6.076	-0.67261	-0.31830	-0.57184	-0.34518	21.6	13111	100
2025-3-19 12:55:4.192	WT901BLE68(490AABDC0D29)	0.291	1.031	-0.195	0.244	-10.681	11.169	95.06	-12.00	-136.31	-38.710	-38.612	27.244	0.32660	0.36066	-0.64618	-0.58789	20.3	13111	100
2025-3-19 12:55:4.199	WT901BLE68(E947F43FF2E9)	-0.902	0.823	-0.159	48.645	22.949	226.074	81.82	28.77	83.77	58.604	-27.440	-6.076	-0.67261	-0.31830	-0.57184	-0.34518	21.6	13111	100
2025-3-19 12:55:4.282	WT901BLE68(490AABDC0D29)	0.353	0.709	-0.196	-0.977	1.404	22.583	95.29	-14.09	-136.38	-38.710	-38.612	27.244	0.33728	0.19467	-0.71240	-0.58371	20.3	13111	100
2025-3-19 12:55:4.317	WT901BLE68(E947F43FF2E9)	-0.417	1.179	-0.052	123.779	-77.637	153.137	92.01	10.62	81.00	43.904	-54.390	-4.606	-0.67261	-0.31830	-0.57184	-0.34518	21.6	13111	100
2025-3-19 12:55:4.404	WT901BLE68(490AABDC0D29)	0.390	0.961	-0.177	-5.981	-1.282	46.265	95.49	-16.85	-135.98	-38.710	-38.612	27.244	0.33728	0.19467	-0.71240	-0.58371	20.3	13111	100
2025-3-19 12:55:4.409	WT901BLE68(E947F43FF2E9)	-0.299	1.184	0.051	57.190	-34.607	95.337	99.88	-0.49	69.81	43.904	-54.390	-4.606	-0.67261	-0.31830	-0.57184	-0.34518	21.6	13111	100
2025-3-19 12:55:4.492	WT901BLE68(490AABDC0D29)	0.456	0.971	-0.223	-17.029	-5.615	53.284	95.13	-21.42	-135.70	-48.608	-30.772	27.048	0.33728	0.19467	-0.71240	-0.58371	20.3	13111	100
2025-3-19 12:55:4.499	WT901BLE68(E947F43FF2E9)	0.124	1.087	0.046	34.668	-155.457	27.161	104.83	-2.60	58.85	43.904	-54.390	-4.606	-0.54846	-0.70816	-0.35291	-0.27029	21.6	13111	100
2025-3-19 12:55:4.589	WT901BLE68(E947F43FF2E9)	-0.293	0.954	-0.269	-9.766	-24.414	-44.617	104.19	1.95	52.23	43.904	-54.390	-4.606	-0.54846	-0.70816	-0.35291	-0.27029	21.6	13111	100
2025-3-19 12:55:4.612	WT901BLE68(490AABDC0D29)	0.543	0.915	-0.116	-25.513	3.357	65.247	93.57	-27.18	-135.24	-48.608	-30.772	27.048	0.33728	0.19467	-0.71240	-0.58371	20.3	13111	100
2025-3-19 12:55:4.670	WT901BLE68(490AABDC0D29)	0.618	1.130	-0.138	-34.485	13.123	72.815	90.80	-33.01	-133.63	-48.608	-30.772	27.048	0.47873	0.05960	-0.69678	-0.53073	20.3	13111	100
2025-3-19 12:55:4.707	WT901BLE68(E947F43FF2E9)	0.020	1.176	-0.290	-10.620	30.762	14.832	103.56	1.71	54.70	34.104	-63.308	-5.292	-0.54846	-0.70816	-0.35291	-0.27029	21.6	13111	100
2025-3-19 12:55:4.792	WT901BLE68(490AABDC0D29)	0.620	1.102	0.012	-46.387	10.803	92.102	86.18	-40.88	-130.75	-48.608	-30.772	27.048	0.47873	0.05960	-0.69678	-0.53073	20.3	13111	100
2025-3-19 12:55:4.799	WT901BLE68(E947F43FF2E9)	-0.335	1.253	-0.700	-0.366	52.490	-0.305	102.45	1.34	62.21	34.104	-63.308	-5.292	-0.54846	-0.70816	-0.35291	-0.27029	21.6	13111	100
2025-3-19 12:55:4.880	WT901BLE68(490AABDC0D29)	0.019	0.190	0.122	-52.673	-2.197	19.714	79.76	-46.20	-128.24	-58.604	-9.114	18.816	0.47873	0.05960	-0.69678	-0.53073	20.3	13111	100
2025-3-19 12:55:4.917	WT901BLE68(E947F43FF2E9)	-0.026	0.917	-0.230	-26.367	21.362	-23.254	100.76	3.67	64.25	34.104	-63.308	-5.292	-0.56238	-0.64053	-0.41724	-0.31503	21.6	13111	100
2025-3-19 12:55:5.2	WT901BLE68(490AABDC0D29)	0.705	0.586	-0.054	-14.404	-28.198	-155.212	84.53	-38.22	-136.83	-58.604	-9.114	18.816	0.47873	0.05960	-0.69678	-0.53073	20.3	13111	100
2025-3-19 12:55:5.9	WT901BLE68(E947F43FF2E9)	-0.108	0.979	-0.162	-14.099	4.272	-8.606	99.08	4.05	62.66	34.104	-63.308	-5.292	-0.56238	-0.64053	-0.41724	-0.31503	21.6	13111	100
2025-3-19 12:55:5.91	WT901BLE68(490AABDC0D29)	0.565	1.057	-0.346	43.762	-17.700	-186.951	89.83	-19.53	-141.61	-58.604	-9.114	18.816	0.30423	0.16910	-0.69879	-0.62485	20.3	13111	100
2025-3-19 12:55:5.127	WT901BLE68(E947F43FF2E9)	-0.116	0.983	-0.138	-11.902	10.620	-6.470	97.87	4.65	63.01	37.828	-61.348	-8.232	-0.56238	-0.64053	-0.41724	-0.31503	21.6	13111	100
2025-3-19 12:55:5.187	WT901BLE68(E947F43FF2E9)	-0.161	0.959	-0.097	-14.282	0.671	-17.151	96.51	6.06	63.36	37.828	-61.348	-8.232	-0.56238	-0.64053	-0.41724	-0.31503	21.6	13111	100
2025-3-19 12:55:5.212	WT901BLE68(490AABDC0D29)	0.202	1.233	-0.141	45.471	72.144	-158.691	94.92	-2.94	-137.19	-58.604	-9.114	18.816	0.30423	0.16910	-0.69879	-0.62485	20.3	13111	100
2025-3-19 12:55:5.271	WT901BLE68(490AABDC0D29)	0.098	1.191	-0.034	28.503	29.297	-87.891	99.16	6.53	-129.72	-31.850	-43.512	35.182	0.30423	0.16910	-0.69879	-0.62485	20.3	13111	100
2025-3-19 12:55:5.307	WT901BLE68(E947F43FF2E9)	-0.199	0.993	-0.094	-11.108	-4.578	-17.944	95.30	7.60	63.36	37.828	-61.348	-8.232	-0.60800	-0.59485	-0.42896	-0.30396	21.6	13111	100
2025-3-19 12:55:5.390	WT901BLE68(490AABDC0D29)	-0.011	1.042	-0.153	-3.784	-11.780	-35.156	99.60	11.17	-130.70	-31.850	-43.512	35.182	0.30423	0.16910	-0.69879	-0.62485	20.3	13111	100
2025-3-19 12:55:5.399	WT901BLE68(E947F43FF2E9)	-0.244	1.021	-0.091	-16.235	-0.183	-22.888	94.03	9.72	63.05	37.828	-61.348	-8.232	-0.60800	-0.59485	-0.42896	-0.30396	21.6	13111	100
2025-3-19 12:55:5.481	WT901BLE68(490AABDC0D29)	-0.071	0.879	-0.208	-10.254	37.781	-3.357	98.78	11.43	-129.63	-31.850	-43.512	35.182	0.22604	0.38394	-0.65201	-0.61340	20.3	13111	100
2025-3-19 12:55:5.517	WT901BLE68(E947F43FF2E9)	-0.344	0.960	-0.044	-13.184	-4.456	-37.598	92.63	12.85	63.06	44.492	-55.566	-12.642	-0.60800	-0.59485	-0.42896	-0.30396	21.6	13111	100
2025-3-19 12:55:5.601	WT901BLE68(490AABDC0D29)	-0.061	0.876	-0.221	-15.808	43.091	18.127	98.21	8.99	-126.36	-31.850	-43.512	35.182	0.22604	0.38394	-0.65201	-0.61340	20.3	13111	100
2025-3-19 12:55:5.610	WT901BLE68(E947F43FF2E9)	-0.442	1.022	-0.039	-21.057	-8.972	-49.316	91.05	17.18	62.25	44.492	-55.566	-12.642	-0.60800	-0.59485	-0.42896	-0.30396	21.6	13111	100
2025-3-19 12:55:5.689	WT901BLE68(490AABDC0D29)	0.396	0.788	-0.281	-11.047	60.303	24.353	97.83	5.71	-122.04	-29.204	-44.688	31.556	0.22604	0.38394	-0.65201	-0.61340	20.3	13111	100
2025-3-19 12:55:5.733	WT901BLE68(E947F43FF2E9)	-0.496	0.961	0.031	-28.381	-16.907	-64.270	88.24	22.96	60.60	44.492	-55.566	-12.642	-0.70474	-0.47662	-0.48547	-0.20096	21.6	13111	100
2025-3-19 12:55:5.790	WT901BLE68(E947F43FF2E9)	-0.432	1.088	-0.042	-39.856	-15.686	-96.130	84.66	30.39	58.78	44.492	-55.566	-12.642	-0.70474	-0.47662	-0.48547	-0.20096	21.6	13111	100
2025-3-19 12:55:5.812	WT901BLE68(490AABDC0D29)	0.319	0.779	-0.235	-21.423	33.508	76.843	96.99	-0.08	-115.30	-29.204	-44.688	31.556	0.22604	0.38394	-0.65201	-0.61340	20.3	13111	100
2025-3-19 12:55:5.899	WT901BLE68(490AABDC0D29)	0.237	1.159	0.080	-0.061	-68.665	55.908	97.19	-3.21	-127.10	-29.204	-44.688	31.556	0.30194	0.29663	-0.69101	-0.58585	20.3	13111	100
2025-3-19 12:55:5.909	WT901BLE68(E947F43FF2E9)	-0.287	0.775	0.027	-94.177	-22.949	-76.172	75.31	39.27	54.37	44.492	-55.566	-12.642	-0.70474	-0.47662	-0.48547	-0.20096	21.6	13111	100
2025-3-19 12:55:5.997	WT901BLE68(E947F43FF2E9)	-0.217	0.108	0.368	-64.392	-28.992	37.781	66.51	39.75	50.09	54.194	-31.066	-23.814	-0.70474	-0.47662	-0.48547	-0.20096	21.6	13111	100
2025-3-19 12:55:6.22	WT901BLE68(490AABDC0D29)	0.155	1.074	-0.177	-0.183	-44.556	43.091	97.77	-5.00	-132.46	-29.204	-44.688	31.556	0.30194	0.29663	-0.69101	-0.58585	20.3	13111	100
2025-3-19 12:55:6.82	WT901BLE68(490AABDC0D29)	0.035	0.912	-0.225	-15.137	-9.705	9.399	97.15	-6.99	-134.03	-41.258	-37.730	35.476	0.30194	0.29663	-0.69101	-0.58585	20.3	13111	100
2025-3-19 12:55:6.117	WT901BLE68(E947F43FF2E9)	-0.342	0.551	-0.192	42.603	127.502	144.775	77.70	33.81	69.21	54.194	-31.066	-23.814	-0.65442	-0.44138	-0.51837	-0.32880	21.6	13111	100
2025-3-19 12:55:6.200	WT901BLE68(490AABDC0D29)	0.221	0.990	-0.235	-9.216	2.319	18.982	96.39	-7.73	-134.51	-41.258	-37.730	35.476	0.30194	0.29663	-0.69101	-0.58585	20.3	13111	100
2025-3-19 12:55:6.208	WT901BLE68(E947F43FF2E9)	-0.661	1.017	0.091	77.026	13.306	140.320	87.53	19.04	74.99	54.194	-31.066	-23.814	-0.65442	-0.44138	-0.51837	-0.32880	21.6	13111	100
2025-3-19 12:55:6.292	WT901BLE68(490AABDC0D29)	0.275	0.972	-0.172	-8.606	-1.831	36.133	95.66	-10.24	-134.93	-41.258	-37.730	35.476	0.33154	0.21390	-0.70663	-0.58728	20.3	13111	100
2025-3-19 12:55:6.337	WT901BLE68(E947F43FF2E9)	-0.367	1.397	-0.031	52.429	12.207	134.277	95.02	5.89	76.72	37.926	-61.054	-6.566	-0.65442	-0.44138	-0.51837	-0.32880	21.6	13111	100
2025-3-19 12:55:6.410	WT901BLE68(490AABDC0D29)	0.386	0.950	-0.149	-12.878	-3.052	41.748	94.96	-14.18	-134.94	-41.258	-37.730	35.476	0.33154	0.21390	-0.70663	-0.58728	20.3	13111	100
2025-3-19 12:55:6.417	WT901BLE68(E947F43FF2E9)	-0.097	1.053	-0.036	12.512	25.879	53.040	96.98	-3.49	75.38	37.926	-61.054	-6.566	-0.65442	-0.44138	-0.51837	-0.32880	21.6	13111	100
2025-3-19 12:55:6.501	WT901BLE68(490AABDC0D29)	0.409	0.836	-0.252	-8.606	6.836	49.805	94.39	-18.46	-134.61	-49.686	-30.772	33.026	0.33154	0.21390	-0.70663	-0.58728	20.3	13111	100
2025-3-19 12:55:6.538	WT901BLE68(E947F43FF2E9)	-0.132	0.949	0.054	4.944	-17.578	-1.465	98.15	-4.44	73.64	37.926	-61.054	-6.566	-0.65442	-0.44138	-0.51837	-0.32880	21.6	13111	100
2025-3-19 12:55:6.597	WT901BLE68(E947F43FF2E9)	0.015	0.920	0.000	-6.348	-36.255	-10.376	97.35	-2.37	72.53	37.926	-61.054	-6.566	-0.52985	-0.61435	-0.42944	-0.39661	21.6	13111	100
2025-3-19 12:55:6.620	WT901BLE68(490AABDC0D29)	0.517	1.159	-0.083	-19.409	11.230	60.120	92.93	-23.19	-133.64	-49.686	-30.772	33.026	0.33154	0.21390	-0.70663	-0.58728	20.3	13111	100
2025-3-19 12:55:6.680	WT901BLE68(490AABDC0D29)	0.668	0.792	-0.113	-21.240	20.020	62.317	90.46	-29.65	-132.01	-49.686	-30.772	33.026	0.46674	0.09772	-0.69415	-0.53909	20.3	13111	100
2025-3-19 12:55:6.717	WT901BLE68(E947F43FF2E9)	0.030	1.002	-0.058	-14.893	41.992	-41.870	95.71	0.31	71.36	37.926	-61.054	-6.566	-0.52985	-0.61435	-0.42944	-0.39661	21.6	13111	100
2025-3-19 12:55:6.801	WT901BLE68(490AABDC0D29)	0.602	0.871	-0.063	-32.410	38.086	81.360	86.22	-36.64	-127.79	-49.686	-30.772	33.026	0.46674	0.09772	-0.69415	-0.53909	20.3	13111	100
2025-3-19 12:55:6.807	WT901BLE68(E947F43FF2E9)	-0.567	1.204	-0.150	-6.470	88.928	-30.212	94.06	4.35	83.70	39.200	-62.034	-5.292	-0.52985	-0.61435	-0.42944	-0.39661	21.6	13111	100
2025-3-19 12:55:6.892	WT901BLE68(490AABDC0D29)	-0.415	0.628	-0.658	1.526	91.064	55.969	78.64	-42.88	-119.06	-58.212	-11.074	18.718	0.46674	0.09772	-0.69415	-0.53909	20.3	13111	100
2025-3-19 12:55:6.939	WT901BLE68(E947F43FF2E9)	-0.140	0.538	-0.040	-20.630	11.414	-70.313	94.22	6.69	88.15	39.200	-62.034	-5.292	-0.52573	-0.48489	-0.54706	-0.43484	21.6	13111	100
2025-3-19 12:55:7.10	WT901BLE68(490AABDC0D29)	0.222	0.350	-0.240	133.423	-124.023	-126.404	89.25	-38.35	-121.01	-58.212	-11.074	18.718	0.46674	0.09772	-0.69415	-0.53909	20.3	13111	100
2025-3-19 12:55:7.19	WT901BLE68(E947F43FF2E9)	-0.177	0.967	-0.086	-2.686	11.597	-15.015	93.95	9.02	88.86	39.200	-62.034	-5.292	-0.52573	-0.48489	-0.54706	-0.43484	21.6	13111	100
2025-3-19 12:55:7.102	WT901BLE68(490AABDC0D29)	0.381	1.144	0.142	85.083	-12.207	-260.010	100.26	-14.47	-121.74	-58.212	-11.074	18.718	0.32941	0.44498	-0.63751	-0.53568	20.3	13111	100
2025-3-19 12:55:7.138	WT901BLE68(E947F43FF2E9)	-0.124	0.988	-0.042	-13.000	-2.869	-5.859	93.00	9.34	89.18	46.844	-57.526	-2.940	-0.52573	-0.48489	-0.54706	-0.43484	21.6	13111	100
2025-3-19 12:55:7.198	WT901BLE68(E947F43FF2E9)	-0.256	0.954	-0.116	-18.188	2.747	-33.020	91.72	11.41	88.93	46.844	-57.526	-2.940	-0.52573	-0.48489	-0.54706	-0.43484	21.6	13111	100
2025-3-19 12:55:7.222	WT901BLE68(490AABDC0D29)	0.886	2.047	0.009	31.250	153.381	-258.240	103.67	11.28	-106.23	-58.212	-11.074	18.718	0.32941	0.44498	-0.63751	-0.53568	20.3	13111	100
2025-3-19 12:55:7.310	WT901BLE68(490AABDC0D29)	-0.329	1.237	-0.027	-22.949	148.865	-43.579	108.80	19.78	-87.93	-13.132	-47.236	29.596	0.32941	0.44498	-0.63751	-0.53568	20.3	13111	100
2025-3-19 12:55:7.319	WT901BLE68(E947F43FF2E9)	-0.438	0.994	-0.049	-20.874	-19.775	-38.635	89.80	14.61	87.93	46.844	-57.526	-2.940	-0.52573	-0.48489	-0.54706	-0.43484	21.6	13111	100
2025-3-19 12:55:7.408	WT901BLE68(E947F43FF2E9)	-0.146	1.009	0.066	-30.762	-28.503	-11.536	86.42	17.79	84.91	46.844	-57.526	-2.940	-0.60266	-0.42300	-0.53976	-0.40793	21.6	13111	100
2025-3-19 12:55:7.441	WT901BLE68(490AABDC0D29)	-0.023	1.178	-0.087	-34.729	-68.237	65.674	103.67	15.22	-95.98	-13.132	-47.236	29.596	0.32941	0.44498	-0.63751	-0.53568	20.3	13111	100
2025-3-19 12:55:7.504	WT901BLE68(490AABDC0D29)	-0.042	0.972	-0.188	-13.245	-8.057	34.607	101.05	10.34	-101.18	-13.132	-47.236	29.596	0.35367	0.51563	-0.56647	-0.53668	20.3	13111	100
2025-3-19 12:55:7.529	WT901BLE68(E947F43FF2E9)	-0.294	1.201	-0.006	-44.739	1.343	-53.223	82.86	20.43	83.93	54.586	-47.334	-11.368	-0.60266	-0.42300	-0.53976	-0.40793	21.6	13111	100
2025-3-19 12:55:7.612	WT901BLE68(490AABDC0D29)	0.053	0.955	-0.243	-12.695	5.676	22.278	99.60	7.61	-103.48	-13.132	-47.236	29.596	0.35367	0.51563	-0.56647	-0.53668	20.3	13111	100
2025-3-19 12:55:7.620	WT901BLE68(E947F43FF2E9)	-0.144	0.919	-0.013	-44.189	-33.203	-50.903	77.46	25.82	80.27	54.586	-47.334	-11.368	-0.60266	-0.42300	-0.53976	-0.40793	21.6	13111	100
2025-3-19 12:55:7.701	WT901BLE68(490AABDC0D29)	0.059	0.962	-0.178	-16.541	-4.028	24.780	98.31	4.76	-104.93	-23.618	-45.374	24.794	0.35367	0.51563	-0.56647	-0.53668	20.3	13111	100
2025-3-19 12:55:7.742	WT901BLE68(E947F43FF2E9)	-0.296	0.827	-0.028	-16.113	85.876	14.282	76.89	27.86	83.89	54.586	-47.334	-11.368	-0.60266	-0.42300	-0.53976	-0.40793	21.6	13111	100
2025-3-19 12:55:7.821	WT901BLE68(490AABDC0D29)	0.103	0.970	-0.205	-9.949	7.690	22.827	97.28	2.24	-105.88	-23.618	-45.374	24.794	0.35367	0.51563	-0.56647	-0.53668	20.3	13111	100
2025-3-19 12:55:7.829	WT901BLE68(E947F43FF2E9)	-0.589	0.831	-0.234	1.343	105.713	87.402	81.78	23.74	94.80	54.586	-47.334	-11.368	-0.58646	-0.32153	-0.58099	-0.46368	21.6	13111	100
2025-3-19 12:55:7.910	WT901BLE68(490AABDC0D29)	0.134	0.978	-0.143	-3.601	3.906	22.095	96.77	-0.38	-106.29	-23.618	-45.374	24.794	0.40378	0.44019	-0.60400	-0.52750	20.3	13111	100
2025-3-19 12:55:7.948	WT901BLE68(E947F43FF2E9)	-0.549	0.984	-0.376	40.710	85.266	106.323	88.25	14.21	104.60	46.452	-57.036	8.428	-0.58646	-0.32153	-0.58099	-0.46368	21.6	13111	100
2025-3-19 12:55:8.7	WT901BLE68(E947F43FF2E9)	-0.419	0.967	-0.226	79.102	14.587	81.909	96.00	4.74	106.58	46.452	-57.036	8.428	-0.58646	-0.32153	-0.58099	-0.46368	21.6	13111	100
2025-3-19 12:55:8.30	WT901BLE68(490AABDC0D29)	0.098	0.974	-0.165	-3.540	-2.502	20.630	96.69	-2.68	-107.35	-23.618	-45.374	24.794	0.40378	0.44019	-0.60400	-0.52750	20.3	13111	100
2025-3-19 12:55:8.90	WT901BLE68(490AABDC0D29)	0.216	0.941	-0.225	0.610	2.258	34.668	96.75	-5.28	-108.61	-30.772	-42.728	23.422	0.40378	0.44019	-0.60400	-0.52750	20.3	13111	100
2025-3-19 12:55:8.127	WT901BLE68(E947F43FF2E9)	-0.190	0.882	0.137	68.420	-40.161	57.129	104.27	-0.13	103.77	46.452	-57.036	8.428	-0.58646	-0.32153	-0.58099	-0.46368	21.6	13111	100
2025-3-19 12:55:8.210	WT901BLE68(490AABDC0D29)	0.320	0.980	-0.169	1.160	3.601	39.185	96.96	-8.71	-109.80	-30.772	-42.728	23.422	0.40378	0.44019	-0.60400	-0.52750	20.3	13111	100
2025-3-19 12:55:8.217	WT901BLE68(E947F43FF2E9)	-0.132	1.009	0.160	20.508	19.348	22.217	107.36	-2.07	102.33	46.452	-57.036	8.428	-0.35858	-0.51291	-0.62137	-0.47131	21.6	13111	100
2025-3-19 12:55:8.302	WT901BLE68(490AABDC0D29)	0.399	0.892	-0.219	-2.319	-5.127	46.265	97.22	-13.16	-111.32	-30.772	-42.728	23.422	0.45428	0.34198	-0.66711	-0.48117	20.3	13111	100
2025-3-19 12:55:8.344	WT901BLE68(E947F43FF2E9)	-0.037	0.950	-0.061	-15.137	55.237	-12.390	105.42	-3.14	108.83	36.064	-60.760	20.678	-0.35858	-0.51291	-0.62137	-0.47131	21.6	13111	100
2025-3-19 12:55:8.420	WT901BLE68(490AABDC0D29)	0.487	0.958	-0.205	0.916	32.532	53.040	97.36	-18.28	-110.82	-30.772	-42.728	23.422	0.45428	0.34198	-0.66711	-0.48117	20.3	13111	100
2025-3-19 12:55:8.429	WT901BLE68(E947F43FF2E9)	0.142	1.021	-0.182	-21.790	25.818	-26.917	102.84	-1.49	113.86	36.064	-60.760	20.678	-0.35858	-0.51291	-0.62137	-0.47131	21.6	13111	100
2025-3-19 12:55:8.512	WT901BLE68(490AABDC0D29)	0.590	0.803	-0.223	10.437	43.518	71.472	96.94	-25.12	-108.81	-44.296	-34.006	20.286	0.45428	0.34198	-0.66711	-0.48117	20.3	13111	100
2025-3-19 12:55:8.548	WT901BLE68(E947F43FF2E9)	-0.280	0.951	-0.131	-21.851	2.014	-40.833	99.97	1.72	117.45	36.064	-60.760	20.678	-0.33984	-0.31766	-0.66556	-0.58353	21.6	13111	100
2025-3-19 12:55:8.608	WT901BLE68(E947F43FF2E9)	-0.338	0.710	-0.351	-53.467	248.657	-88.867	94.78	5.27	127.07	36.064	-60.760	20.678	-0.33984	-0.31766	-0.66556	-0.58353	21.6	13111	100
2025-3-19 12:55:8.631	WT901BLE68(490AABDC0D29)	0.672	1.120	-0.346	5.005	93.750	70.862	95.22	-32.28	-102.84	-44.296	-34.006	20.286	0.45428	0.34198	-0.66711	-0.48117	20.3	13111	100
2025-3-19 12:55:8.720	WT901BLE68(490AABDC0D29)	0.239	1.052	0.203	-19.226	36.377	88.562	89.87	-40.78	-94.50	-44.296	-34.006	20.286	0.64865	0.24393	-0.64963	-0.31241	20.3	13111	100
2025-3-19 12:55:8.729	WT901BLE68(E947F43FF2E9)	-0.096	0.705	0.034	-6.226	14.587	-68.115	96.95	6.58	132.37	36.064	-60.760	20.678	-0.33984	-0.31766	-0.66556	-0.58353	21.6	13111	100
2025-3-19 12:55:8.818	WT901BLE68(E947F43FF2E9)	-0.064	0.982	-0.111	-6.653	-2.380	3.357	96.28	8.11	131.39	38.416	-57.428	23.030	-0.33984	-0.31766	-0.66556	-0.58353	21.6	13111	100
2025-3-19 12:55:8.846	WT901BLE68(490AABDC0D29)	0.087	0.117	-0.121	-12.756	44.250	-5.920	84.45	-44.07	-91.56	-44.296	-34.006	20.286	0.64865	0.24393	-0.64963	-0.31241	20.3	13111	100
2025-3-19 12:55:8.902	WT901BLE68(490AABDC0D29)	0.716	0.515	-0.062	66.040	0.061	-164.917	85.80	-31.25	-88.60	-32.830	-36.456	11.368	0.64865	0.24393	-0.64963	-0.31241	20.3	13111	100
2025-3-19 12:55:8.946	WT901BLE68(E947F43FF2E9)	-0.154	0.982	-0.142	-7.507	0.000	-11.353	95.72	8.33	129.78	38.416	-57.428	23.030	-0.33984	-0.31766	-0.66556	-0.58353	21.6	13111	100
2025-3-19 12:55:9.21	WT901BLE68(490AABDC0D29)	0.472	0.960	-0.020	98.816	22.339	-155.823	93.37	-14.79	-87.74	-32.830	-36.456	11.368	0.64865	0.24393	-0.64963	-0.31241	20.3	13111	100
2025-3-19 12:55:9.29	WT901BLE68(E947F43FF2E9)	-0.235	0.986	-0.142	-10.437	-1.343	-21.179	95.05	9.94	129.00	38.416	-57.428	23.030	-0.34814	-0.26312	-0.68826	-0.57941	21.6	13111	100
2025-3-19 12:55:9.112	WT901BLE68(490AABDC0D29)	0.198	1.208	0.016	66.223	50.354	-132.690	99.75	-1.63	-87.11	-32.830	-36.456	11.368	0.42871	0.57947	-0.51697	-0.46161	20.3	13111	100
2025-3-19 12:55:9.150	WT901BLE68(E947F43FF2E9)	-0.182	0.964	-0.104	-14.893	6.287	-22.095	93.93	12.07	128.45	42.826	-56.056	20.678	-0.34814	-0.26312	-0.68826	-0.57941	21.6	13111	100
2025-3-19 12:55:9.229	WT901BLE68(490AABDC0D29)	0.093	1.159	-0.127	19.958	3.174	-79.041	102.52	8.21	-88.85	-32.830	-36.456	11.368	0.42871	0.57947	-0.51697	-0.46161	20.3	13111	100
2025-3-19 12:55:9.247	WT901BLE68(E947F43FF2E9)	-0.296	0.955	-0.131	-5.859	-5.676	-26.306	93.33	14.07	127.57	42.826	-56.056	20.678	-0.34814	-0.26312	-0.68826	-0.57941	21.6	13111	100
2025-3-19 12:55:9.322	WT901BLE68(490AABDC0D29)	0.020	0.996	-0.271	1.526	55.298	-36.194	102.66	12.74	-91.13	1.960	-46.354	26.558	0.42871	0.57947	-0.51697	-0.46161	20.3	13111	100
2025-3-19 12:55:9.357	WT901BLE68(E947F43FF2E9)	-0.334	1.008	-0.089	-5.493	-1.770	-35.095	92.78	16.64	127.14	42.826	-56.056	20.678	-0.42273	-0.21191	-0.68658	-0.55215	21.6	13111	100
2025-3-19 12:55:9.451	WT901BLE68(490AABDC0D29)	-0.011	0.968	-0.211	1.648	60.425	-3.723	103.02	12.78	-90.36	1.960	-46.354	26.558	0.42871	0.57947	-0.51697	-0.46161	20.3	13111	100
2025-3-19 12:55:9.452	WT901BLE68(E947F43FF2E9)	-0.451	1.115	-0.078	-6.714	-11.658	-40.710	91.95	20.46	126.02	42.826	-56.056	20.678	-0.42273	-0.21191	-0.68658	-0.55215	21.6	13111	100
2025-3-19 12:55:9.502	WT901BLE68(490AABDC0D29)	0.132	0.878	-0.245	-6.348	41.870	15.198	102.64	10.49	-91.46	1.960	-46.354	26.558	0.38849	0.57339	-0.52655	-0.49286	20.3	13111	100
2025-3-19 12:55:9.537	WT901BLE68(E947F43FF2E9)	-0.467	0.931	-0.045	-18.433	3.357	-52.734	90.52	25.57	125.13	42.826	-56.056	20.678	-0.42273	-0.21191	-0.68658	-0.55215	21.6	13111	100
2025-3-19 12:55:9.621	WT901BLE68(490AABDC0D29)	-2.598	0.809	-0.375	-9.888	58.289	22.583	102.17	7.25	-92.78	1.960	-46.354	26.558	0.38849	0.57339	-0.52655	-0.49286	20.3	13111	100
2025-3-19 12:55:9.629	WT901BLE68(E947F43FF2E9)	-0.674	0.790	-0.030	-16.235	-6.592	-79.468	89.36	32.17	124.21	54.292	-46.648	17.836	-0.42273	-0.21191	-0.68658	-0.55215	21.6	13111	100
2025-3-19 12:55:9.712	WT901BLE68(490AABDC0D29)	0.242	2.731	-1.701	-34.851	-169.739	6.348	100.11	1.72	-95.59	-2.548	-47.432	26.656	0.38849	0.57339	-0.52655	-0.49286	20.3	13111	100
2025-3-19 12:55:9.748	WT901BLE68(E947F43FF2E9)	-0.544	1.021	-0.047	-45.410	-39.307	-108.032	85.19	40.16	120.65	54.292	-46.648	17.836	-0.42273	-0.21191	-0.68658	-0.55215	21.6	13111	100
2025-3-19 12:55:9.833	WT901BLE68(490AABDC0D29)	0.403	1.128	0.107	-10.132	-51.208	29.236	99.69	0.09	-107.47	-2.548	-47.432	26.656	0.38849	0.57339	-0.52655	-0.49286	20.3	13111	100
2025-3-19 12:55:9.837	WT901BLE68(E947F43FF2E9)	0.771	0.831	0.162	-87.097	-36.194	-89.355	73.84	49.37	112.52	54.292	-46.648	17.836	-0.61758	-0.01868	-0.63425	-0.46463	21.6	13111	100
2025-3-19 12:55:9.938	WT901BLE68(490AABDC0D29)	0.157	0.851	-0.325	-15.076	-9.033	22.583	98.92	-3.24	-112.47	-2.548	-47.432	26.656	0.37207	0.39148	-0.64648	-0.53876	20.3	13111	100
2025-3-19 12:55:9.957	WT901BLE68(E947F43FF2E9)	-0.317	0.045	0.375	-100.403	63.782	71.411	63.11	51.23	109.67	61.446	-37.240	13.524	-0.61758	-0.01868	-0.63425	-0.46463	21.6	13111	100
2025-3-19 12:55:10.18	WT901BLE68(E947F43FF2E9)	-0.613	0.511	-0.095	-17.273	27.954	179.626	75.26	42.52	131.24	61.446	-37.240	13.524	-0.61758	-0.01868	-0.63425	-0.46463	21.6	13111	100
2025-3-19 12:55:10.41	WT901BLE68(490AABDC0D29)	0.170	0.935	-0.172	-4.761	4.944	1.038	97.99	-3.47	-115.52	-2.548	-47.432	26.656	0.37207	0.39148	-0.64648	-0.53876	20.3	13111	100
2025-3-19 12:55:10.133	WT901BLE68(490AABDC0D29)	0.265	0.946	-0.224	-3.601	-3.906	16.968	97.70	-4.66	-118.14	-12.544	-47.824	22.932	0.37207	0.39148	-0.64648	-0.53876	20.3	13111	100
2025-3-19 12:55:10.139	WT901BLE68(E947F43FF2E9)	-0.800	1.092	-0.083	59.998	4.761	185.608	82.71	23.80	138.67	61.446	-37.240	13.524	-0.61758	-0.01868	-0.63425	-0.46463	21.6	13111	100
2025-3-19 12:55:10.237	WT901BLE68(E947F43FF2E9)	-0.198	1.464	-0.043	61.218	7.813	156.555	90.48	9.37	139.19	61.446	-37.240	13.524	-0.29904	-0.19281	-0.68332	-0.63745	21.6	13111	100
2025-3-19 12:55:10.252	WT901BLE68(490AABDC0D29)	0.247	0.940	-0.231	-3.174	3.845	30.640	97.93	-7.67	-121.61	-12.544	-47.824	22.932	0.37207	0.39148	-0.64648	-0.53876	20.3	13111	100
2025-3-19 12:55:10.311	WT901BLE68(490AABDC0D29)	0.409	0.916	-0.198	-14.587	-0.549	46.509	97.15	-11.58	-124.05	-12.544	-47.824	22.932	0.38477	0.26804	-0.69452	-0.54556	20.3	13111	100
2025-3-19 12:55:10.347	WT901BLE68(E947F43FF2E9)	-0.079	1.092	0.046	30.945	-31.006	60.730	94.25	-0.21	138.27	61.446	-37.240	13.524	-0.29904	-0.19281	-0.68332	-0.63745	21.6	13111	100
