time	DeviceName	AccX(g)	AccY(g)	AccZ(g)	AsX(°/s)	AsY(°/s)	AsZ(°/s)	AngleX(°)	AngleY(°)	AngleZ(°)	HX(uT)	HY(uT)	HZ(uT)	Q0()	Q1()	Q2()	Q3()	Temperature(°C)	Version()	Battery level(%)
2025-3-13 12:39:59.655	WT901BLE68(490AABDC0D29)	0.050	0.972	-0.259	-15.076	-9.033	-4.028	99.53	-1.19	-159.30	null	null	null	null	null	null	null	null	null	null
2025-3-13 12:39:59.708	WT901BLE68(E947F43FF2E9)	-0.197	0.986	-0.272	15.625	-55.420	22.522	100.85	11.32	82.99	null	null	null	null	null	null	null	27.5	13111	100
2025-3-13 12:39:59.775	WT901BLE68(490AABDC0D29)	0.038	0.958	-0.228	-30.273	-24.109	-10.925	97.47	-0.24	-161.35	null	null	null	null	null	null	null	null	null	null
2025-3-13 12:39:59.825	WT901BLE68(E947F43FF2E9)	-0.014	0.944	-0.193	4.517	14.465	24.902	101.16	9.15	81.27	null	null	null	null	null	null	null	27.5	13111	100
2025-3-13 12:39:59.833	WT901BLE68(490AABDC0D29)	0.004	0.998	-0.112	-30.212	-25.574	-15.869	94.70	1.27	-164.07	null	null	null	null	null	null	null	null	null	null
2025-3-13 12:39:59.885	WT901BLE68(E947F43FF2E9)	-0.062	0.972	-0.215	11.902	-9.338	26.062	102.06	6.33	78.80	33.614	-62.426	3.430	null	null	null	null	27.5	13111	100
2025-3-13 12:39:59.954	WT901BLE68(490AABDC0D29)	0.048	1.018	-0.104	-30.090	-9.888	-28.625	91.93	3.44	-165.56	null	null	null	null	null	null	null	null	null	null
2025-3-13 12:40:0.7	WT901BLE68(E947F43FF2E9)	-0.000	0.949	-0.241	18.555	-24.292	23.254	103.38	4.38	77.54	33.614	-62.426	3.430	null	null	null	null	27.5	13111	100
2025-3-13 12:40:0.45	WT901BLE68(490AABDC0D29)	-0.300	1.097	-0.097	-28.870	-2.502	-50.232	89.41	6.89	-166.65	null	null	null	null	null	null	null	null	null	null
2025-3-13 12:40:0.98	WT901BLE68(E947F43FF2E9)	-0.044	0.957	-0.258	14.587	4.944	4.089	104.96	3.19	75.56	33.614	-62.426	3.430	0.48886	0.62280	0.49985	0.35095	27.5	13111	100
2025-3-13 12:40:0.195	WT901BLE68(490AABDC0D29)	0.226	0.938	-0.210	-18.188	31.067	-67.139	88.04	12.10	-164.82	null	null	null	null	null	null	null	null	null	100
2025-3-13 12:40:0.218	WT901BLE68(E947F43FF2E9)	-0.018	0.937	-0.369	9.094	6.104	-0.488	106.42	2.90	75.20	33.614	-62.426	3.430	0.48886	0.62280	0.49985	0.35095	27.5	13111	100
2025-3-13 12:40:0.255	WT901BLE68(490AABDC0D29)	-0.051	0.737	-0.223	2.991	98.022	-43.396	88.14	17.68	-162.42	null	null	null	null	null	null	null	null	null	100
2025-3-13 12:40:0.308	WT901BLE68(E947F43FF2E9)	-0.005	0.963	-0.303	5.188	4.761	8.057	107.19	2.27	75.11	31.066	-63.406	7.252	0.48886	0.62280	0.49985	0.35095	27.5	13111	100
2025-3-13 12:40:0.374	WT901BLE68(490AABDC0D29)	0.006	0.849	-0.246	15.442	105.591	47.424	94.79	16.98	-149.45	null	null	null	null	null	null	null	null	13111	100
2025-3-13 12:40:0.428	WT901BLE68(E947F43FF2E9)	0.012	0.935	-0.313	3.052	20.630	1.953	107.63	1.38	76.03	31.066	-63.406	7.252	0.48886	0.62280	0.49985	0.35095	27.5	13111	100
2025-3-13 12:40:0.435	WT901BLE68(490AABDC0D29)	0.006	1.076	-0.158	8.362	57.983	121.521	97.64	6.71	-144.41	null	null	null	null	null	null	null	null	13111	100
2025-3-13 12:40:0.498	WT901BLE68(E947F43FF2E9)	-0.011	0.933	-0.327	-1.099	9.033	-2.563	107.86	0.99	76.69	31.066	-63.406	7.252	0.46002	0.62885	0.51025	0.36395	27.5	13111	100
2025-3-13 12:40:0.554	WT901BLE68(490AABDC0D29)	-0.178	1.227	-0.157	-3.784	56.763	137.268	98.34	-7.17	-141.65	null	null	null	null	null	null	null	null	13111	100
2025-3-13 12:40:0.607	WT901BLE68(E947F43FF2E9)	0.000	0.930	-0.355	-5.432	32.227	-1.953	108.08	0.50	78.11	31.066	-63.406	7.252	0.46002	0.62885	0.51025	0.36395	27.5	13111	100
2025-3-13 12:40:0.645	WT901BLE68(490AABDC0D29)	-0.157	1.066	-0.168	-1.648	7.263	108.154	97.75	-19.56	-140.86	null	null	null	null	null	null	null	28.5	13111	100
2025-3-13 12:40:0.699	WT901BLE68(E947F43FF2E9)	0.078	0.956	-0.307	-8.179	17.334	14.709	107.05	-0.94	79.71	28.518	-63.896	8.918	0.46002	0.62885	0.51025	0.36395	27.5	13111	100
2025-3-13 12:40:0.766	WT901BLE68(490AABDC0D29)	0.244	0.890	-0.228	6.470	-0.732	-17.334	98.41	-22.95	-142.16	null	null	null	null	null	null	null	28.5	13111	100
2025-3-13 12:40:0.818	WT901BLE68(E947F43FF2E9)	0.059	0.984	-0.350	-12.634	16.052	38.025	106.22	-3.97	80.32	28.518	-63.896	8.918	0.46002	0.62885	0.51025	0.36395	27.5	13111	100
2025-3-13 12:40:0.856	WT901BLE68(490AABDC0D29)	0.188	1.059	0.094	8.118	17.639	-48.340	98.18	-19.19	-139.04	-37.240	-35.868	58.212	null	null	null	null	28.5	13111	100
2025-3-13 12:40:0.907	WT901BLE68(E947F43FF2E9)	-0.063	1.020	-0.321	-40.039	11.353	64.575	103.88	-8.72	80.62	28.518	-63.896	8.918	0.42615	0.63611	0.43634	0.47247	27.5	13111	100
2025-3-13 12:40:0.975	WT901BLE68(490AABDC0D29)	0.186	0.907	-0.356	27.039	67.139	-63.232	98.31	-14.51	-136.88	-37.240	-35.868	58.212	null	null	null	null	28.5	13111	100
2025-3-13 12:40:1.28	WT901BLE68(E947F43FF2E9)	0.450	1.390	-0.364	-46.204	34.790	94.849	99.66	-16.18	79.83	28.518	-63.896	8.918	0.42615	0.63611	0.43634	0.47247	27.5	13111	100
2025-3-13 12:40:1.65	WT901BLE68(490AABDC0D29)	0.053	0.959	-0.221	14.038	-33.752	-40.527	100.37	-9.35	-136.49	-37.240	-35.868	58.212	-0.26630	-0.24487	0.73584	0.57230	28.5	13111	100
2025-3-13 12:40:1.118	WT901BLE68(E947F43FF2E9)	-0.100	0.996	-0.283	-0.916	7.935	122.803	97.05	-27.11	79.33	4.704	-64.484	2.254	0.42615	0.63611	0.43634	0.47247	27.5	13111	100
2025-3-13 12:40:1.184	WT901BLE68(490AABDC0D29)	0.107	0.971	-0.342	17.944	-14.709	-28.320	102.19	-5.81	-138.30	-37.240	-35.868	58.212	-0.26630	-0.24487	0.73584	0.57230	28.5	13111	100
2025-3-13 12:40:1.238	WT901BLE68(E947F43FF2E9)	0.000	0.570	-0.031	9.827	-2.808	42.786	98.24	-35.68	77.39	4.704	-64.484	2.254	0.42615	0.63611	0.43634	0.47247	27.5	13111	100
2025-3-13 12:40:1.245	WT901BLE68(490AABDC0D29)	0.116	0.962	-0.292	-2.197	-9.766	-8.911	102.93	-4.08	-141.09	-28.714	-39.494	62.230	-0.26630	-0.24487	0.73584	0.57230	28.5	13111	100
2025-3-13 12:40:1.303	WT901BLE68(E947F43FF2E9)	0.134	0.583	0.083	-5.249	-28.748	-99.854	100.84	-31.58	73.74	4.704	-64.484	2.254	0.44577	0.67886	0.35663	0.46170	27.5	13111	100
2025-3-13 12:40:1.366	WT901BLE68(490AABDC0D29)	0.082	0.928	-0.291	-3.235	-25.146	-7.751	102.90	-3.21	-143.12	-28.714	-39.494	62.230	-0.26630	-0.24487	0.73584	0.57230	28.5	13111	100
2025-3-13 12:40:1.418	WT901BLE68(E947F43FF2E9)	0.207	0.987	-0.346	-17.639	-127.258	-176.575	100.76	-15.00	69.04	4.704	-64.484	2.254	0.44577	0.67886	0.35663	0.46170	27.5	13111	100
2025-3-13 12:40:1.485	WT901BLE68(490AABDC0D29)	0.046	0.964	-0.267	-1.648	-19.836	-15.137	102.96	-1.75	-145.52	-28.714	-39.494	62.230	-0.18115	-0.22324	0.75049	0.59497	28.5	13111	100
2025-3-13 12:40:1.508	WT901BLE68(E947F43FF2E9)	0.273	1.360	-0.606	-11.719	-103.577	-207.336	100.38	6.13	60.50	38.122	-58.408	-1.176	0.44577	0.67886	0.35663	0.46170	27.5	13111	100
2025-3-13 12:40:1.574	WT901BLE68(490AABDC0D29)	0.025	0.938	-0.281	-2.441	-17.090	-25.208	103.11	0.52	-147.19	-28.714	-39.494	62.230	-0.18115	-0.22324	0.75049	0.59497	28.5	13111	100
2025-3-13 12:40:1.626	WT901BLE68(E947F43FF2E9)	0.355	1.183	-0.202	18.127	-66.833	-131.531	100.68	23.77	56.13	38.122	-58.408	-1.176	0.44577	0.67886	0.35663	0.46170	27.5	13111	100
2025-3-13 12:40:1.665	WT901BLE68(490AABDC0D29)	-0.093	0.928	-0.331	-5.005	-28.931	-36.865	103.38	3.83	-149.66	-19.600	-41.454	64.582	-0.18115	-0.22324	0.75049	0.59497	28.5	13111	100
2025-3-13 12:40:1.718	WT901BLE68(E947F43FF2E9)	-0.259	0.947	-0.208	10.071	-117.737	114.685	98.43	22.74	46.99	38.122	-58.408	-1.176	0.64731	0.66577	0.34985	0.12338	27.5	13111	100
2025-3-13 12:40:1.784	WT901BLE68(490AABDC0D29)	-0.059	0.986	-0.377	-15.747	-33.447	-40.466	102.71	7.92	-151.66	-19.600	-41.454	64.582	-0.18115	-0.22324	0.75049	0.59497	28.5	13111	100
2025-3-13 12:40:1.836	WT901BLE68(E947F43FF2E9)	-0.026	1.259	0.209	1.648	38.208	48.401	98.33	14.90	41.46	38.122	-58.408	-1.176	0.64731	0.66577	0.34985	0.12338	27.5	13111	100
2025-3-13 12:40:1.844	WT901BLE68(490AABDC0D29)	-0.011	1.177	-0.266	-18.188	-35.217	-59.143	100.79	12.85	-154.36	-19.600	-41.454	64.582	-0.00961	-0.25214	0.71643	0.65036	28.5	13111	100
2025-3-13 12:40:1.936	WT901BLE68(E947F43FF2E9)	-0.046	0.947	-0.101	23.499	-36.499	67.871	100.17	8.11	42.61	29.400	-62.230	-4.312	0.64731	0.66577	0.34985	0.12338	27.5	13111	100
2025-3-13 12:40:1.999	WT901BLE68(490AABDC0D29)	-0.519	1.098	-0.274	2.197	-48.523	-88.440	99.07	19.93	-157.62	-19.600	-41.454	64.582	-0.00961	-0.25214	0.71643	0.65036	28.5	13111	100
2025-3-13 12:40:2.18	WT901BLE68(E947F43FF2E9)	0.090	0.999	-0.166	5.798	39.917	27.832	100.85	4.00	43.64	29.400	-62.230	-4.312	0.64731	0.66577	0.34985	0.12338	27.5	13111	100
2025-3-13 12:40:2.54	WT901BLE68(490AABDC0D29)	0.598	1.060	-0.351	61.035	-104.614	-76.172	100.09	29.28	-164.23	10.290	-37.828	64.876	-0.00961	-0.25214	0.71643	0.65036	28.5	13111	100
2025-3-13 12:40:2.107	WT901BLE68(E947F43FF2E9)	-0.013	0.987	-0.274	12.634	-10.742	33.203	102.08	0.76	43.82	29.400	-62.230	-4.312	0.57428	0.72525	0.28979	0.24515	27.5	13111	100
2025-3-13 12:40:2.175	WT901BLE68(490AABDC0D29)	0.004	0.315	0.136	72.632	-66.467	53.833	99.16	32.92	-178.77	10.290	-37.828	64.876	-0.00961	-0.25214	0.71643	0.65036	28.5	13111	100
2025-3-13 12:40:2.228	WT901BLE68(E947F43FF2E9)	0.032	0.950	-0.274	3.418	3.052	21.362	102.75	-1.49	44.64	29.400	-62.230	-4.312	0.57428	0.72525	0.28979	0.24515	27.5	13111	100
2025-3-13 12:40:2.266	WT901BLE68(490AABDC0D29)	0.087	0.969	0.188	34.424	-15.259	213.684	103.26	17.93	176.90	10.290	-37.828	64.876	0.06772	0.06155	0.77658	0.62326	28.5	13111	100
2025-3-13 12:40:2.318	WT901BLE68(E947F43FF2E9)	0.050	0.959	-0.252	2.380	4.944	16.052	103.00	-3.22	45.29	21.266	-64.582	-1.764	0.57428	0.72525	0.28979	0.24515	27.5	13111	100
2025-3-13 12:40:2.383	WT901BLE68(490AABDC0D29)	-0.913	1.547	0.061	-17.700	-102.905	283.142	101.81	-5.91	165.11	10.290	-37.828	64.876	0.06772	0.06155	0.77658	0.62326	28.5	13111	100
2025-3-13 12:40:2.438	WT901BLE68(E947F43FF2E9)	0.071	0.981	-0.262	-8.484	-0.244	27.649	102.71	-5.15	45.51	21.266	-64.582	-1.764	0.57428	0.72525	0.28979	0.24515	27.5	13111	100
2025-3-13 12:40:2.445	WT901BLE68(490AABDC0D29)	1.353	1.353	-0.172	2.380	3.723	159.302	101.95	-28.02	157.83	-20.874	-38.514	66.738	0.06772	0.06155	0.77658	0.62326	28.5	13111	100
2025-3-13 12:40:2.528	WT901BLE68(E947F43FF2E9)	0.160	1.007	-0.230	-18.372	14.465	46.631	101.33	-8.73	45.76	21.266	-64.582	-1.764	0.55945	0.72394	0.23001	0.33154	27.5	13111	100
2025-3-13 12:40:2.603	WT901BLE68(490AABDC0D29)	0.301	0.789	0.046	2.258	100.525	-44.678	98.78	-27.05	164.67	-20.874	-38.514	66.738	0.06772	0.06155	0.77658	0.62326	28.5	13111	100
2025-3-13 12:40:2.646	WT901BLE68(E947F43FF2E9)	-0.202	1.113	-0.217	-43.640	15.747	66.162	98.06	-14.41	46.37	21.266	-64.582	-1.764	0.55945	0.72394	0.23001	0.33154	27.5	13111	100
2025-3-13 12:40:2.655	WT901BLE68(490AABDC0D29)	0.160	1.063	-0.459	24.231	45.898	-64.636	96.54	-20.61	173.70	-20.874	-38.514	66.738	-0.07379	0.11050	0.74402	0.65475	28.5	13111	100
2025-3-13 12:40:2.709	WT901BLE68(E947F43FF2E9)	0.088	1.475	-0.297	-57.129	49.805	115.295	92.23	-22.68	48.32	2.744	-59.584	-12.838	0.55945	0.72394	0.23001	0.33154	27.5	13111	100
2025-3-13 12:40:2.776	WT901BLE68(490AABDC0D29)	0.056	0.887	-0.253	14.404	-56.824	-43.213	98.24	-13.88	175.39	-20.874	-38.514	66.738	-0.07379	0.11050	0.74402	0.65475	28.5	13111	100
2025-3-13 12:40:2.827	WT901BLE68(E947F43FF2E9)	-0.374	0.896	-0.301	-34.424	-25.513	139.465	87.42	-34.93	49.12	2.744	-59.584	-12.838	0.55945	0.72394	0.23001	0.33154	27.5	13111	100
2025-3-13 12:40:2.864	WT901BLE68(490AABDC0D29)	0.036	0.993	-0.317	13.794	-13.733	-32.471	100.31	-9.43	175.65	-13.230	-39.200	68.698	-0.07379	0.11050	0.74402	0.65475	28.5	13111	100
2025-3-13 12:40:2.917	WT901BLE68(E947F43FF2E9)	-0.002	0.151	-0.156	-9.094	-85.205	-54.688	92.01	-38.59	39.63	2.744	-59.584	-12.838	0.58621	0.75171	0.05029	0.29779	27.5	13111	100
2025-3-13 12:40:2.984	WT901BLE68(490AABDC0D29)	0.047	0.945	-0.260	-4.456	-27.222	-21.790	100.76	-6.16	173.72	-13.230	-39.200	68.698	-0.07379	0.11050	0.74402	0.65475	28.5	13111	100
2025-3-13 12:40:3.38	WT901BLE68(E947F43FF2E9)	0.096	0.799	-0.157	1.770	-104.736	-218.079	98.62	-21.66	26.98	2.744	-59.584	-12.838	0.58621	0.75171	0.05029	0.29779	27.5	13111	100
2025-3-13 12:40:3.75	WT901BLE68(490AABDC0D29)	-0.015	0.938	-0.262	-3.113	-20.996	-19.653	100.91	-3.81	172.95	-13.230	-39.200	68.698	-0.07379	0.11050	0.74402	0.65475	28.5	13111	100
2025-3-13 12:40:3.128	WT901BLE68(E947F43FF2E9)	1.552	1.824	-0.400	47.485	-112.305	-267.029	101.65	5.28	21.37	2.744	-59.584	-12.838	0.58621	0.75171	0.05029	0.29779	27.5	13111	100
2025-3-13 12:40:3.193	WT901BLE68(490AABDC0D29)	-0.020	0.993	-0.269	-1.892	-32.776	-15.991	101.21	-1.53	171.53	-13.230	-39.200	68.698	0.03824	0.06570	0.76990	0.63351	28.5	13111	100
2025-3-13 12:40:3.248	WT901BLE68(E947F43FF2E9)	-0.077	0.966	-0.372	21.667	-50.659	-27.039	103.05	24.42	15.74	26.754	-62.622	-8.036	0.58621	0.75171	0.05029	0.29779	27.5	13111	100
2025-3-13 12:40:3.255	WT901BLE68(490AABDC0D29)	-0.061	1.007	-0.344	-18.311	-24.841	-63.599	100.60	2.71	169.74	-0.196	-39.690	67.424	0.03824	0.06570	0.76990	0.63351	28.5	13111	100
2025-3-13 12:40:3.310	WT901BLE68(E947F43FF2E9)	0.033	1.168	0.075	7.446	-8.850	68.359	102.67	17.89	11.73	26.754	-62.622	-8.036	0.62305	0.76807	0.14688	-0.01337	27.5	13111	100
2025-3-13 12:40:3.374	WT901BLE68(490AABDC0D29)	0.084	1.204	-0.209	-24.475	-42.236	-74.646	98.54	9.78	168.26	-0.196	-39.690	67.424	0.03824	0.06570	0.76990	0.63351	28.5	13111	100
2025-3-13 12:40:3.427	WT901BLE68(E947F43FF2E9)	-0.235	1.291	-0.108	34.912	-53.101	96.863	103.61	10.12	11.42	26.754	-62.622	-8.036	0.62305	0.76807	0.14688	-0.01337	27.5	13111	100
2025-3-13 12:40:3.495	WT901BLE68(490AABDC0D29)	-0.508	1.183	-0.286	-2.930	-46.082	-103.149	96.22	18.29	166.38	-0.196	-39.690	67.424	0.26559	-0.05539	0.74353	0.61108	28.5	13111	100
2025-3-13 12:40:3.518	WT901BLE68(E947F43FF2E9)	-0.014	0.943	-0.190	10.132	21.057	30.640	104.66	4.22	13.58	13.328	-65.856	-6.174	0.62305	0.76807	0.14688	-0.01337	27.5	13111	100
2025-3-13 12:40:3.583	WT901BLE68(490AABDC0D29)	0.103	0.822	-0.350	25.330	-54.565	-102.966	97.44	28.53	163.86	-0.196	-39.690	67.424	0.26559	-0.05539	0.74353	0.61108	28.5	13111	100
2025-3-13 12:40:3.638	WT901BLE68(E947F43FF2E9)	0.082	0.985	-0.317	11.353	13.428	29.602	106.09	0.70	13.58	13.328	-65.856	-6.174	0.62305	0.76807	0.14688	-0.01337	27.5	13111	100
2025-3-13 12:40:3.672	WT901BLE68(490AABDC0D29)	-0.054	0.312	0.090	30.334	-80.566	96.558	97.38	30.15	157.45	-0.196	-39.690	67.424	0.26559	-0.05539	0.74353	0.61108	28.5	13111	100
2025-3-13 12:40:3.726	WT901BLE68(E947F43FF2E9)	0.050	0.940	-0.232	10.864	-2.258	13.611	106.69	-1.65	14.28	13.328	-65.856	-6.174	0.62305	0.76807	0.14688	-0.01337	27.5	13111	100
2025-3-13 12:40:3.793	WT901BLE68(490AABDC0D29)	-0.053	0.921	-0.043	25.330	-35.583	232.056	98.18	13.65	151.44	17.738	-35.182	62.034	0.26559	-0.05539	0.74353	0.61108	28.5	13111	100
2025-3-13 12:40:3.848	WT901BLE68(E947F43FF2E9)	-0.045	0.976	-0.258	17.090	14.099	-1.465	107.79	-2.17	15.46	13.328	-65.856	-6.174	0.58167	0.80194	0.09763	0.09442	27.5	13111	100
2025-3-13 12:40:3.855	WT901BLE68(490AABDC0D29)	-0.619	1.525	-0.059	25.940	16.052	237.244	100.24	-10.49	146.18	17.738	-35.182	62.034	0.26559	-0.05539	0.74353	0.61108	28.5	13111	100
2025-3-13 12:40:3.938	WT901BLE68(E947F43FF2E9)	0.049	0.945	-0.346	-0.977	17.639	13.123	108.58	-2.89	17.41	13.328	-65.856	-6.174	0.58167	0.80194	0.09763	0.09442	27.5	13111	100
2025-3-13 12:40:4.10	WT901BLE68(490AABDC0D29)	0.973	1.128	-0.220	6.287	7.874	98.694	100.23	-27.58	149.53	17.738	-35.182	62.034	-0.01913	0.34567	0.67709	0.64929	28.5	13111	100
2025-3-13 12:40:4.58	WT901BLE68(E947F43FF2E9)	0.076	0.975	-0.271	-22.278	12.939	41.260	106.88	-5.82	17.93	8.134	-65.758	-4.312	0.58167	0.80194	0.09763	0.09442	27.5	13111	100
2025-3-13 12:40:4.65	WT901BLE68(490AABDC0D29)	0.213	1.001	0.165	-16.052	40.771	-57.739	99.06	-26.07	152.29	-10.682	-45.962	62.916	-0.01913	0.34567	0.67709	0.64929	28.5	13111	100
2025-3-13 12:40:4.118	WT901BLE68(E947F43FF2E9)	-0.021	1.030	-0.276	-35.706	33.691	45.471	103.88	-10.28	19.42	8.134	-65.758	-4.312	0.60809	0.76257	0.05588	0.21320	27.5	13111	100
2025-3-13 12:40:4.185	WT901BLE68(490AABDC0D29)	0.071	0.968	-0.211	7.141	53.955	-59.265	96.02	-20.18	161.57	-10.682	-45.962	62.916	-0.01913	0.34567	0.67709	0.64929	28.5	13111	100
2025-3-13 12:40:4.237	WT901BLE68(E947F43FF2E9)	-0.032	1.268	-0.223	-50.232	21.790	70.557	99.34	-15.89	20.96	8.134	-65.758	-4.312	0.60809	0.76257	0.05588	0.21320	27.5	13111	100
2025-3-13 12:40:4.274	WT901BLE68(490AABDC0D29)	0.114	0.888	-0.209	13.245	-19.348	-54.321	97.08	-13.38	161.86	-10.682	-45.962	62.916	0.03363	0.17203	0.73898	0.65042	28.5	13111	100
2025-3-13 12:40:4.327	WT901BLE68(E947F43FF2E9)	0.701	1.283	-0.283	-28.320	36.438	130.188	95.21	-25.37	20.83	-12.152	-53.900	-14.994	0.60809	0.76257	0.05588	0.21320	27.5	13111	100
2025-3-13 12:40:4.395	WT901BLE68(490AABDC0D29)	0.118	0.943	-0.271	21.057	-15.686	-16.235	98.97	-9.91	162.36	-10.682	-45.962	62.916	0.03363	0.17203	0.73898	0.65042	28.5	13111	100
2025-3-13 12:40:4.478	WT901BLE68(E947F43FF2E9)	-0.017	0.832	-0.212	-12.756	-46.204	126.404	97.40	-37.62	13.44	-12.152	-53.900	-14.994	0.60809	0.76257	0.05588	0.21320	27.5	13111	100
2025-3-13 12:40:4.497	WT901BLE68(490AABDC0D29)	0.009	1.002	-0.338	5.615	-32.654	-14.038	101.09	-7.58	160.91	-10.682	-45.962	62.916	0.03363	0.17203	0.73898	0.65042	28.5	13111	100
2025-3-13 12:40:4.537	WT901BLE68(E947F43FF2E9)	0.183	0.254	-0.208	-5.798	-60.608	-74.524	100.91	-36.02	5.64	-12.152	-53.900	-14.994	0.60809	0.76257	0.05588	0.21320	27.5	13111	100
2025-3-13 12:40:4.605	WT901BLE68(490AABDC0D29)	0.008	0.919	-0.258	-3.357	-20.996	-22.949	101.26	-4.91	159.51	1.862	-43.610	65.758	0.03363	0.17203	0.73898	0.65042	28.5	13111	100
2025-3-13 12:40:4.656	WT901BLE68(E947F43FF2E9)	0.063	0.790	-0.369	5.432	-50.964	-215.271	103.54	-17.96	-0.26	-12.152	-53.900	-14.994	0.61145	0.77563	-0.09839	0.12125	27.5	13111	100
2025-3-13 12:40:4.665	WT901BLE68(490AABDC0D29)	-0.046	0.947	-0.296	3.113	-17.578	-18.921	101.83	-2.29	159.05	1.862	-43.610	65.758	0.03363	0.17203	0.73898	0.65042	28.5	13111	100
2025-3-13 12:40:4.718	WT901BLE68(E947F43FF2E9)	1.292	1.544	-0.211	49.500	-21.118	-250.610	107.20	6.16	4.05	-12.152	-53.900	-14.994	0.61145	0.77563	-0.09839	0.12125	27.5	13111	100
2025-3-13 12:40:4.796	WT901BLE68(490AABDC0D29)	-0.012	0.939	-0.322	2.563	-8.118	-20.325	102.44	-0.06	159.51	1.862	-43.610	65.758	0.11252	0.13785	0.76755	0.61572	28.5	13111	100
2025-3-13 12:40:4.837	WT901BLE68(E947F43FF2E9)	-0.730	1.268	-0.079	31.006	-70.007	-95.520	111.04	23.58	5.32	19.796	-73.892	-0.588	0.61145	0.77563	-0.09839	0.12125	27.5	13111	100
2025-3-13 12:40:4.905	WT901BLE68(490AABDC0D29)	-0.055	1.003	-0.318	-3.418	-20.081	-58.594	102.67	3.63	158.74	13.524	-39.984	64.386	0.11252	0.13785	0.76755	0.61572	28.5	13111	100
2025-3-13 12:40:4.956	WT901BLE68(E947F43FF2E9)	-0.233	0.932	-0.176	7.690	-52.429	28.381	109.76	19.35	1.49	19.796	-73.892	-0.588	0.57629	0.80829	0.08792	-0.08188	27.5	13111	100
2025-3-13 12:40:5.0	WT901BLE68(490AABDC0D29)	0.156	1.161	-0.297	-18.799	-30.396	-85.083	101.69	10.74	158.30	13.524	-39.984	64.386	0.11252	0.13785	0.76755	0.61572	28.5	13111	100
2025-3-13 12:40:5.46	WT901BLE68(E947F43FF2E9)	-0.061	1.086	-0.382	17.456	-31.555	67.505	109.36	12.90	2.57	19.796	-73.892	-0.588	0.57629	0.80829	0.08792	-0.08188	27.5	13111	100
2025-3-13 12:40:5.114	WT901BLE68(490AABDC0D29)	-0.616	1.338	-0.426	15.198	-86.243	-122.498	100.43	20.79	155.80	13.524	-39.984	64.386	0.11252	0.13785	0.76755	0.61572	28.5	13111	100
2025-3-13 12:40:5.166	WT901BLE68(E947F43FF2E9)	0.047	0.927	-0.219	4.822	42.114	33.325	110.08	7.16	1.60	19.796	-73.892	-0.588	0.57629	0.80829	0.08792	-0.08188	27.5	13111	100
2025-3-13 12:40:5.205	WT901BLE68(490AABDC0D29)	0.188	0.605	-0.257	35.767	-98.206	-98.206	100.16	32.49	147.51	13.524	-39.984	64.386	0.37830	0.03360	0.75708	0.53146	28.5	13111	100
2025-3-13 12:40:5.258	WT901BLE68(E947F43FF2E9)	-0.124	0.999	-0.398	16.663	18.005	33.264	111.76	3.31	0.38	7.154	-75.362	4.214	0.57629	0.80829	0.08792	-0.08188	27.5	13111	100
2025-3-13 12:40:5.264	WT901BLE68(490AABDC0D29)	0.105	0.429	0.119	24.292	29.785	156.067	99.26	28.04	140.42	13.524	-39.984	64.386	0.37830	0.03360	0.75708	0.53146	28.5	13111	100
2025-3-13 12:40:5.346	WT901BLE68(E947F43FF2E9)	-0.035	0.901	-0.331	-23.743	32.471	20.691	110.82	0.05	4.15	7.154	-75.362	4.214	0.57629	0.80829	0.08792	-0.08188	27.5	13111	100
2025-3-13 12:40:5.415	WT901BLE68(490AABDC0D29)	-0.295	1.317	-0.128	-9.705	6.592	318.481	99.10	1.36	139.63	20.188	-42.042	56.448	0.37830	0.03360	0.75708	0.53146	28.5	13111	100
2025-3-13 12:40:5.466	WT901BLE68(E947F43FF2E9)	0.054	0.974	-0.256	-17.639	13.428	36.865	108.73	-3.18	5.22	7.154	-75.362	4.214	0.58133	0.81183	0.01974	0.05020	27.5	13111	100
2025-3-13 12:40:5.475	WT901BLE68(490AABDC0D29)	-0.779	1.713	-0.388	7.996	30.029	262.146	99.52	-29.14	136.13	20.188	-42.042	56.448	0.37830	0.03360	0.75708	0.53146	28.5	13111	100
2025-3-13 12:40:5.528	WT901BLE68(E947F43FF2E9)	0.140	1.023	-0.244	-20.813	-0.122	65.491	106.85	-7.60	3.68	7.154	-75.362	4.214	0.58133	0.81183	0.01974	0.05020	27.5	13111	100
2025-3-13 12:40:5.598	WT901BLE68(490AABDC0D29)	0.408	1.023	-0.436	25.391	65.796	-113.586	94.87	-36.40	148.26	20.188	-42.042	56.448	-0.04138	0.37228	0.62515	0.68466	28.5	13111	100
2025-3-13 12:40:5.647	WT901BLE68(E947F43FF2E9)	-0.408	1.119	-0.282	-43.274	16.785	83.069	104.19	-14.30	1.79	-8.526	-69.482	-2.940	0.58133	0.81183	0.01974	0.05020	27.5	13111	100
2025-3-13 12:40:5.683	WT901BLE68(490AABDC0D29)	0.016	1.235	0.410	-2.502	-2.747	-64.392	91.93	-25.99	158.31	-10.388	-48.216	56.644	-0.04138	0.37228	0.62515	0.68466	28.5	13111	100
2025-3-13 12:40:5.739	WT901BLE68(E947F43FF2E9)	0.363	1.563	-0.676	-51.636	60.547	154.907	99.12	-24.53	1.47	-8.526	-69.482	-2.940	0.58133	0.81183	0.01974	0.05020	27.5	13111	100
2025-3-13 12:40:5.805	WT901BLE68(490AABDC0D29)	0.153	1.013	-0.265	26.306	-26.855	-60.059	93.50	-17.40	162.77	-10.388	-48.216	56.644	-0.04138	0.37228	0.62515	0.68466	28.5	13111	100
2025-3-13 12:40:5.858	WT901BLE68(E947F43FF2E9)	-0.103	0.834	-0.116	-4.028	9.094	149.658	95.80	-39.55	1.82	-8.526	-69.482	-2.940	0.62018	0.69559	-0.23334	0.27740	27.5	13111	100
2025-3-13 12:40:5.903	WT901BLE68(490AABDC0D29)	0.090	0.981	-0.229	14.221	-18.982	-31.860	95.99	-12.21	160.99	-10.388	-48.216	56.644	-0.04138	0.37228	0.62515	0.68466	28.5	13111	100
2025-3-13 12:40:5.949	WT901BLE68(E947F43FF2E9)	0.071	0.165	0.004	39.490	-84.229	-82.458	99.73	-40.20	-3.31	-8.526	-69.482	-2.940	0.62018	0.69559	-0.23334	0.27740	27.5	13111	100
2025-3-13 12:40:6.13	WT901BLE68(490AABDC0D29)	0.085	0.932	-0.263	-8.423	-26.917	-28.625	97.10	-8.81	160.69	-10.388	-48.216	56.644	0.05545	0.17505	0.72833	0.66010	28.5	13111	100
2025-3-13 12:40:6.67	WT901BLE68(E947F43FF2E9)	0.070	0.950	0.032	65.308	-42.969	-246.948	108.62	-20.09	-9.64	-18.326	-54.880	-4.116	0.62018	0.69559	-0.23334	0.27740	27.5	13111	100
2025-3-13 12:40:6.75	WT901BLE68(490AABDC0D29)	0.172	0.965	-0.269	-6.287	-15.381	-30.579	97.25	-5.60	159.91	-10.388	-48.216	56.644	0.05545	0.17505	0.72833	0.66010	28.5	13111	100
2025-3-13 12:40:6.128	WT901BLE68(E947F43FF2E9)	1.317	1.680	-0.327	45.288	-14.099	-312.195	112.32	7.89	-4.79	-18.326	-54.880	-4.116	0.62018	0.69559	-0.23334	0.27740	27.5	13111	100
2025-3-13 12:40:6.200	WT901BLE68(490AABDC0D29)	-0.039	0.985	-0.247	-12.817	-30.884	-49.622	96.93	-1.50	158.27	4.410	-45.962	57.526	0.05545	0.17505	0.72833	0.66010	28.5	13111	100
2025-3-13 12:40:6.248	WT901BLE68(E947F43FF2E9)	-0.365	1.319	-0.097	25.818	75.012	-138.184	121.54	28.41	13.89	-18.326	-54.880	-4.116	0.49060	0.82495	0.23550	-0.15225	27.5	13111	100
2025-3-13 12:40:6.283	WT901BLE68(490AABDC0D29)	0.301	1.052	-0.263	-24.780	-25.269	-84.106	95.54	5.60	157.15	4.410	-45.962	57.526	0.05545	0.17505	0.72833	0.66010	28.5	13111	100
2025-3-13 12:40:6.337	WT901BLE68(E947F43FF2E9)	0.000	0.898	-0.221	13.855	-50.110	28.870	121.01	24.21	13.84	-18.326	-54.880	-4.116	0.49060	0.82495	0.23550	-0.15225	27.5	13111	100
2025-3-13 12:40:6.405	WT901BLE68(490AABDC0D29)	0.041	1.450	-0.307	-52.368	-26.306	-108.765	91.66	14.48	155.38	4.410	-45.962	57.526	0.25146	0.05261	0.70889	0.65677	28.5	13111	100
2025-3-13 12:40:6.457	WT901BLE68(E947F43FF2E9)	-0.122	1.090	-0.160	7.690	-15.869	82.703	117.65	18.81	3.85	19.796	-69.188	7.644	0.49060	0.82495	0.23550	-0.15225	27.5	13111	100
2025-3-13 12:40:6.505	WT901BLE68(490AABDC0D29)	0.565	1.093	-0.665	10.132	57.373	-176.147	89.10	28.31	154.09	4.410	-45.962	57.526	0.25146	0.05261	0.70889	0.65677	28.5	13111	100
2025-3-13 12:40:6.548	WT901BLE68(E947F43FF2E9)	-0.093	0.920	-0.394	10.193	29.297	42.236	117.82	12.22	5.68	19.796	-69.188	7.644	0.49060	0.82495	0.23550	-0.15225	27.5	13111	100
2025-3-13 12:40:6.615	WT901BLE68(490AABDC0D29)	0.054	0.373	-0.118	-33.875	50.171	-17.029	94.45	38.89	161.21	30.184	-27.146	56.056	0.25146	0.05261	0.70889	0.65677	28.5	13111	100
2025-3-13 12:40:6.666	WT901BLE68(E947F43FF2E9)	-0.103	0.925	-0.392	-3.662	45.166	20.447	118.09	7.41	9.21	19.796	-69.188	7.644	0.51630	0.85007	0.10358	-0.00070	27.5	13111	100
2025-3-13 12:40:6.675	WT901BLE68(490AABDC0D29)	-0.142	0.437	-0.367	-65.308	99.426	174.866	96.84	28.36	171.06	30.184	-27.146	56.056	0.25146	0.05261	0.70889	0.65677	28.5	13111	100
2025-3-13 12:40:6.757	WT901BLE68(E947F43FF2E9)	0.036	0.886	-0.409	-14.221	56.091	17.639	117.42	3.36	13.06	19.796	-69.188	7.644	0.51630	0.85007	0.10358	-0.00070	27.5	13111	100
2025-3-13 12:40:6.826	WT901BLE68(490AABDC0D29)	-0.819	1.351	-0.666	-41.382	100.037	270.325	93.75	3.47	176.95	30.184	-27.146	56.056	0.01816	0.01031	0.72836	0.68481	28.5	13111	100
2025-3-13 12:40:6.883	WT901BLE68(E947F43FF2E9)	0.039	0.916	-0.411	-19.470	29.297	20.264	115.72	-0.13	15.33	7.154	-68.992	5.586	0.51630	0.85007	0.10358	-0.00070	27.5	13111	100
2025-3-13 12:40:6.908	WT901BLE68(490AABDC0D29)	-0.941	1.467	-0.437	5.432	-17.944	247.070	93.23	-24.42	179.96	30.184	-27.146	56.056	0.01816	0.01031	0.72836	0.68481	28.5	13111	100
2025-3-13 12:40:6.936	WT901BLE68(E947F43FF2E9)	0.034	0.953	-0.316	-17.456	20.630	56.580	113.55	-4.60	15.84	7.154	-68.992	5.586	0.51630	0.85007	0.10358	-0.00070	27.5	13111	100
2025-3-13 12:40:7.7	WT901BLE68(490AABDC0D29)	-0.276	1.011	-0.306	29.968	46.692	-91.492	95.00	-32.33	-177.74	-25.676	-42.924	62.916	0.01816	0.01031	0.72836	0.68481	28.5	13111	100
2025-3-13 12:40:7.57	WT901BLE68(E947F43FF2E9)	-0.495	1.139	-0.376	-28.259	42.664	83.435	111.26	-12.00	15.98	7.154	-68.992	5.586	0.54544	0.81845	0.04776	0.17395	27.5	13111	100
2025-3-13 12:40:7.122	WT901BLE68(490AABDC0D29)	-0.071	1.502	0.147	10.986	51.025	-115.662	93.24	-20.97	-167.86	-25.676	-42.924	62.916	0.01816	0.01031	0.72836	0.68481	28.5	13111	100
2025-3-13 12:40:7.148	WT901BLE68(E947F43FF2E9)	0.448	1.672	-0.637	-25.635	95.642	150.330	107.52	-24.34	16.30	7.154	-68.992	5.586	0.54544	0.81845	0.04776	0.17395	27.5	13111	100
2025-3-13 12:40:7.215	WT901BLE68(490AABDC0D29)	0.046	0.919	-0.381	9.827	-54.810	-62.683	94.41	-11.52	-164.52	-25.676	-42.924	62.916	-0.14426	-0.03253	0.73602	0.66052	28.5	13111	100
2025-3-13 12:40:7.266	WT901BLE68(E947F43FF2E9)	-0.046	1.090	-0.246	3.418	23.682	148.804	108.93	-39.82	12.16	-19.208	-53.998	-4.998	0.54544	0.81845	0.04776	0.17395	27.5	13111	100
2025-3-13 12:40:7.308	WT901BLE68(490AABDC0D29)	0.010	0.994	-0.264	11.230	-4.272	-40.283	96.17	-5.80	-167.87	-25.676	-42.924	62.916	-0.14426	-0.03253	0.73602	0.66052	28.5	13111	100
2025-3-13 12:40:7.359	WT901BLE68(E947F43FF2E9)	0.054	0.040	-0.002	4.639	12.329	-121.704	110.67	-37.47	9.92	-19.208	-53.998	-4.998	0.54544	0.81845	0.04776	0.17395	27.5	13111	100
2025-3-13 12:40:7.426	WT901BLE68(490AABDC0D29)	0.085	0.986	-0.194	8.972	-30.518	-27.161	97.74	-2.38	-170.78	-12.936	-44.002	65.758	-0.14426	-0.03253	0.73602	0.66052	28.5	13111	100
2025-3-13 12:40:7.480	WT901BLE68(E947F43FF2E9)	0.784	0.972	-0.310	51.086	-32.471	-317.139	110.39	-12.47	14.55	-19.208	-53.998	-4.998	0.55170	0.82101	0.10544	0.10175	27.5	13111	100
2025-3-13 12:40:7.484	WT901BLE68(490AABDC0D29)	0.073	0.978	-0.266	-7.751	-38.818	-34.729	98.16	0.81	-173.76	-12.936	-44.002	65.758	-0.14426	-0.03253	0.73602	0.66052	28.5	13111	100
2025-3-13 12:40:7.537	WT901BLE68(E947F43FF2E9)	1.102	1.949	-0.329	89.966	-65.491	-290.955	118.33	18.41	23.30	-19.208	-53.998	-4.998	0.55170	0.82101	0.10544	0.10175	27.5	13111	100
2025-3-13 12:40:7.609	WT901BLE68(490AABDC0D29)	-0.125	0.953	-0.313	-7.263	-18.677	-69.031	97.79	5.93	-175.95	-12.936	-44.002	65.758	0.03915	-0.07764	0.74792	0.65796	28.5	13111	100
2025-3-13 12:40:7.656	WT901BLE68(E947F43FF2E9)	-1.028	1.130	-0.084	-8.118	-20.935	95.947	126.20	29.94	32.79	36.064	-54.096	4.998	0.55170	0.82101	0.10544	0.10175	27.5	13111	100
2025-3-13 12:40:7.695	WT901BLE68(490AABDC0D29)	0.523	1.218	-0.324	-16.296	-30.701	-94.666	97.08	14.01	-176.89	-12.936	-44.002	65.758	0.03915	-0.07764	0.74792	0.65796	28.5	13111	100
2025-3-13 12:40:7.748	WT901BLE68(E947F43FF2E9)	0.180	1.331	-0.180	-1.648	-30.273	100.891	120.11	22.49	23.60	36.064	-54.096	4.998	0.55170	0.82101	0.10544	0.10175	27.5	13111	100
2025-3-13 12:40:7.814	WT901BLE68(490AABDC0D29)	-0.246	1.585	-0.301	-17.517	-45.593	-148.804	93.76	25.18	179.15	12.544	-39.494	63.112	0.03915	-0.07764	0.74792	0.65796	28.5	13111	100
2025-3-13 12:40:7.867	WT901BLE68(E947F43FF2E9)	-0.030	0.987	-0.274	3.418	22.461	83.130	117.08	14.15	16.46	36.064	-54.096	4.998	0.52707	0.83060	0.17883	-0.01431	27.5	13111	100
2025-3-13 12:40:7.932	WT901BLE68(490AABDC0D29)	0.061	0.639	-0.355	15.015	28.870	-171.021	95.95	40.28	177.83	12.544	-39.494	63.112	0.03915	-0.07764	0.74792	0.65796	28.5	13111	100
2025-3-13 12:40:7.957	WT901BLE68(E947F43FF2E9)	-0.060	0.966	-0.355	-8.179	26.184	44.922	116.86	5.73	20.36	36.064	-54.096	4.998	0.52707	0.83060	0.17883	-0.01431	27.5	13111	100
2025-3-13 12:40:8.23	WT901BLE68(490AABDC0D29)	0.046	0.063	-0.056	-23.926	36.194	99.121	97.66	37.54	-179.80	12.544	-39.494	63.112	0.20328	-0.18408	0.71884	0.63870	28.5	13111	100
2025-3-13 12:40:8.77	WT901BLE68(E947F43FF2E9)	0.094	0.897	-0.341	-11.047	22.217	35.217	115.48	0.88	23.47	18.620	-57.820	1.470	0.52707	0.83060	0.17883	-0.01431	27.5	13111	100
2025-3-13 12:40:8.85	WT901BLE68(490AABDC0D29)	-0.624	0.819	-0.180	-42.236	36.316	297.241	94.43	12.51	-179.29	12.544	-39.494	63.112	0.20328	-0.18408	0.71884	0.63870	28.5	13111	100
2025-3-13 12:40:8.168	WT901BLE68(E947F43FF2E9)	-0.010	0.967	-0.282	-7.996	6.165	36.682	114.13	-3.03	24.48	18.620	-57.820	1.470	0.52707	0.83060	0.17883	-0.01431	27.5	13111	100
2025-3-13 12:40:8.212	WT901BLE68(490AABDC0D29)	-1.141	2.055	-0.625	4.211	81.116	292.969	93.05	-20.89	-177.98	-11.662	-35.770	64.386	0.20328	-0.18408	0.71884	0.63870	28.5	13111	100
2025-3-13 12:40:8.287	WT901BLE68(E947F43FF2E9)	0.089	1.027	-0.301	-15.930	17.944	63.049	112.70	-7.50	26.04	18.620	-57.820	1.470	0.52640	0.81586	0.13882	0.19476	27.5	13111	100
2025-3-13 12:40:8.295	WT901BLE68(490AABDC0D29)	0.587	1.158	-0.449	11.536	14.465	-84.961	91.32	-31.98	-170.02	-11.662	-35.770	64.386	0.20328	-0.18408	0.71884	0.63870	28.5	13111	100
2025-3-13 12:40:8.376	WT901BLE68(E947F43FF2E9)	-0.438	1.297	-0.459	-24.841	32.593	110.107	110.68	-15.69	25.14	18.620	-57.820	1.470	0.52640	0.81586	0.13882	0.19476	27.5	13111	100
2025-3-13 12:40:8.446	WT901BLE68(490AABDC0D29)	-0.072	1.189	-0.091	4.333	-29.297	-73.120	91.83	-21.28	-169.92	-11.662	-35.770	64.386	-0.18240	0.05963	0.71640	0.67068	28.5	13111	100
2025-3-13 12:40:8.498	WT901BLE68(E947F43FF2E9)	0.507	1.693	-0.477	-23.010	130.676	171.082	105.92	-30.21	28.48	-0.098	-54.292	-4.312	0.52640	0.81586	0.13882	0.19476	27.5	13111	100
2025-3-13 12:40:8.511	WT901BLE68(490AABDC0D29)	0.017	0.916	-0.397	19.287	-44.373	-71.411	93.59	-11.64	-167.50	-11.662	-35.770	64.386	-0.18240	0.05963	0.71640	0.67068	28.5	13111	100
2025-3-13 12:40:8.557	WT901BLE68(E947F43FF2E9)	-0.162	0.638	-0.163	35.583	66.101	98.022	105.94	-44.55	28.78	-0.098	-54.292	-4.312	0.52640	0.81586	0.13882	0.19476	27.5	13111	100
2025-3-13 12:40:8.624	WT901BLE68(490AABDC0D29)	0.075	1.042	-0.238	8.179	-9.583	-35.583	95.99	-5.47	-170.63	-12.642	-34.496	64.484	-0.18240	0.05963	0.71640	0.67068	28.5	13111	100
2025-3-13 12:40:8.676	WT901BLE68(E947F43FF2E9)	0.236	0.253	0.057	36.194	-51.453	-172.974	107.37	-34.89	28.70	-0.098	-54.292	-4.312	0.50015	0.79843	0.04544	0.33197	27.5	13111	100
2025-3-13 12:40:8.743	WT901BLE68(490AABDC0D29)	0.117	0.917	-0.274	-5.371	-30.823	-21.423	96.51	-2.74	-172.92	-12.642	-34.496	64.484	-0.18240	0.05963	0.71640	0.67068	28.5	13111	100
2025-3-13 12:40:8.768	WT901BLE68(E947F43FF2E9)	0.636	1.375	-0.097	48.828	-82.764	-292.969	112.05	-6.64	26.09	-0.098	-54.292	-4.312	0.50015	0.79843	0.04544	0.33197	27.5	13111	100
2025-3-13 12:40:8.833	WT901BLE68(490AABDC0D29)	0.004	0.908	-0.302	-9.277	11.658	-44.922	96.04	0.49	-174.28	-12.642	-34.496	64.484	-0.02246	-0.05026	0.74142	0.66870	28.5	13111	100
2025-3-13 12:40:8.896	WT901BLE68(E947F43FF2E9)	1.233	1.837	-0.322	46.448	-110.718	-249.634	116.32	21.37	32.53	25.774	-59.584	1.862	0.50015	0.79843	0.04544	0.33197	27.5	13111	100
2025-3-13 12:40:8.896	WT901BLE68(490AABDC0D29)	0.006	1.081	-0.221	-13.672	-42.053	-67.871	95.55	5.48	-175.57	-12.642	-34.496	64.484	-0.02246	-0.05026	0.74142	0.66870	28.5	13111	100
2025-3-13 12:40:8.946	WT901BLE68(E947F43FF2E9)	-0.710	1.009	-0.229	-0.366	-28.748	65.491	117.93	30.15	32.96	25.774	-59.584	1.862	0.50015	0.79843	0.04544	0.33197	27.5	13111	100
2025-3-13 12:40:9.13	WT901BLE68(490AABDC0D29)	0.330	1.305	-0.300	-25.635	-29.297	-102.478	93.83	13.74	-178.04	1.568	-34.888	62.132	-0.02246	-0.05026	0.74142	0.66870	28.5	13111	100
2025-3-13 12:40:9.67	WT901BLE68(E947F43FF2E9)	0.173	1.322	-0.150	8.667	28.503	81.665	115.30	21.41	29.30	25.774	-59.584	1.862	0.54553	0.79407	0.26746	0.01498	27.5	13111	100
2025-3-13 12:40:9.117	WT901BLE68(490AABDC0D29)	-0.718	1.487	-0.501	-12.451	-41.870	-160.706	90.57	25.88	178.37	1.568	-34.888	62.132	-0.02246	-0.05026	0.74142	0.66870	28.5	13111	100
2025-3-13 12:40:9.157	WT901BLE68(E947F43FF2E9)	-0.101	0.930	-0.302	10.803	34.424	56.946	115.00	13.11	27.72	25.774	-59.584	1.862	0.54553	0.79407	0.26746	0.01498	27.5	13111	100
2025-3-13 12:40:9.225	WT901BLE68(490AABDC0D29)	-0.057	0.600	-0.232	16.113	23.743	-132.385	91.16	39.90	177.14	1.568	-34.888	62.132	0.26657	-0.23248	0.67694	0.64539	28.5	13111	100
2025-3-13 12:40:9.316	WT901BLE68(490AABDC0D29)	-0.077	0.147	-0.085	0.488	78.979	95.642	96.48	37.16	-176.58	1.568	-34.888	62.132	0.26657	-0.23248	0.67694	0.64539	28.5	13111	100
2025-3-13 12:40:9.367	WT901BLE68(E947F43FF2E9)	-0.074	0.911	-0.397	-0.183	49.072	37.537	116.25	5.94	33.06	19.992	-59.682	3.724	0.54553	0.79407	0.26746	0.01498	27.5	13111	100
2025-3-13 12:40:9.368	WT901BLE68(E947F43FF2E9)	0.058	0.899	-0.392	-12.268	21.484	32.227	115.33	1.44	35.98	19.992	-59.682	3.724	0.54553	0.79407	0.26746	0.01498	27.5	13111	100
2025-3-13 12:40:9.463	WT901BLE68(490AABDC0D29)	-0.219	0.956	-0.025	-12.390	34.668	258.362	96.63	14.95	-175.39	6.664	-31.850	62.818	0.26657	-0.23248	0.67694	0.64539	28.5	13111	100
2025-3-13 12:40:9.497	WT901BLE68(E947F43FF2E9)	-0.094	0.959	-0.251	-15.991	-22.583	41.443	112.93	-1.57	33.95	19.992	-59.682	3.724	0.52655	0.79947	0.22775	0.17780	27.5	13111	100
2025-3-13 12:40:9.497	WT901BLE68(490AABDC0D29)	-0.851	1.711	-0.216	-29.175	24.170	292.297	94.61	-13.60	-174.91	6.664	-31.850	62.818	0.26657	-0.23248	0.67694	0.64539	28.5	13111	100
2025-3-13 12:40:9.577	WT901BLE68(E947F43FF2E9)	0.032	0.953	-0.271	-12.451	3.845	63.965	111.40	-5.96	33.23	19.992	-59.682	3.724	0.52655	0.79947	0.22775	0.17780	27.5	13111	100
2025-3-13 12:40:9.614	WT901BLE68(490AABDC0D29)	0.585	1.103	-0.230	-13.306	-35.400	113.220	93.94	-32.05	-176.59	6.664	-31.850	62.818	-0.21701	0.15707	0.70749	0.65390	28.5	13111	100
2025-3-13 12:40:9.698	WT901BLE68(E947F43FF2E9)	-0.590	1.166	-0.346	-32.288	32.166	99.060	109.56	-13.47	31.22	4.508	-57.820	-1.274	0.52655	0.79947	0.22775	0.17780	27.5	13111	100
2025-3-13 12:40:9.704	WT901BLE68(490AABDC0D29)	-0.217	0.825	-0.221	11.841	5.554	-46.387	93.45	-24.94	-175.93	6.664	-31.850	62.818	-0.21701	0.15707	0.70749	0.65390	28.5	13111	100
2025-3-13 12:40:9.757	WT901BLE68(E947F43FF2E9)	0.560	1.967	-0.494	-44.983	95.215	178.467	105.01	-26.49	31.81	4.508	-57.820	-1.274	0.52655	0.79947	0.22775	0.17780	27.5	13111	100
2025-3-13 12:40:9.824	WT901BLE68(490AABDC0D29)	0.141	0.988	-0.305	32.959	-6.653	-78.308	94.71	-13.85	-170.11	-11.172	-40.278	64.288	-0.21701	0.15707	0.70749	0.65390	28.5	13111	100
2025-3-13 12:40:9.877	WT901BLE68(E947F43FF2E9)	-0.162	0.573	-0.203	-4.761	3.296	130.859	104.01	-42.02	27.76	4.508	-57.820	-1.274	0.48657	0.77057	-0.06482	0.40640	27.5	13111	100
2025-3-13 12:40:9.915	WT901BLE68(490AABDC0D29)	0.245	1.011	-0.306	10.437	-39.612	-29.846	97.73	-7.86	-176.23	-11.172	-40.278	64.288	-0.21701	0.15707	0.70749	0.65390	28.5	13111	100
2025-3-13 12:40:9.967	WT901BLE68(E947F43FF2E9)	0.273	0.149	-0.222	-12.024	-104.492	-151.489	107.14	-36.54	19.70	4.508	-57.820	-1.274	0.48657	0.77057	-0.06482	0.40640	27.5	13111	100
2025-3-13 12:40:10.35	WT901BLE68(490AABDC0D29)	-0.017	0.906	-0.314	-1.526	-35.950	-32.776	98.94	-4.66	-179.74	-11.172	-40.278	64.288	-0.02200	0.02386	0.76028	0.64868	28.5	13111	100
2025-3-13 12:40:10.86	WT901BLE68(E947F43FF2E9)	0.651	1.078	-0.502	14.099	-68.848	-298.706	110.74	-10.07	12.05	-2.450	-57.330	-4.704	0.48657	0.77057	-0.06482	0.40640	27.5	13111	100
2025-3-13 12:40:10.124	WT901BLE68(490AABDC0D29)	-0.093	0.985	-0.291	-6.409	-26.123	-50.659	99.31	-0.09	178.03	-11.172	-40.278	64.288	-0.02200	0.02386	0.76028	0.64868	28.5	13111	100
2025-3-13 12:40:10.176	WT901BLE68(E947F43FF2E9)	0.784	2.019	-0.209	80.566	-62.195	-269.958	117.43	19.59	22.58	-2.450	-57.330	-4.704	0.48657	0.77057	-0.06482	0.40640	27.5	13111	100
2025-3-13 12:40:10.245	WT901BLE68(490AABDC0D29)	0.017	1.045	-0.314	-5.249	-26.001	-69.824	99.06	5.64	176.58	5.390	-37.632	64.386	-0.02200	0.02386	0.76028	0.64868	28.5	13111	100
2025-3-13 12:40:10.299	WT901BLE68(E947F43FF2E9)	-0.140	1.331	-0.035	-3.113	-68.909	112.915	120.95	27.65	23.86	-2.450	-57.330	-4.704	0.52182	0.80728	0.25928	-0.09283	27.5	13111	100
2025-3-13 12:40:10.335	WT901BLE68(490AABDC0D29)	0.168	1.322	-0.359	-12.573	-39.368	-105.591	98.53	14.13	174.53	5.390	-37.632	64.386	-0.02200	0.02386	0.76028	0.64868	28.5	13111	100
2025-3-13 12:40:10.357	WT901BLE68(E947F43FF2E9)	0.003	1.110	-0.614	12.085	-38.879	111.023	116.87	18.74	17.80	-2.450	-57.330	-4.704	0.52182	0.80728	0.25928	-0.09283	27.5	13111	100
2025-3-13 12:40:10.424	WT901BLE68(490AABDC0D29)	-0.100	1.653	-0.465	18.188	-75.989	-166.138	96.26	26.67	169.41	5.390	-37.632	64.386	0.27829	-0.11688	0.73514	0.60690	28.5	13111	100
2025-3-13 12:40:10.477	WT901BLE68(E947F43FF2E9)	0.109	0.981	-0.144	-1.526	134.277	42.847	116.14	8.71	15.86	9.408	-62.524	0.588	0.52182	0.80728	0.25928	-0.09283	27.5	13111	100
2025-3-13 12:40:10.513	WT901BLE68(490AABDC0D29)	0.180	0.727	-0.337	27.893	-40.527	-72.266	99.26	38.95	167.89	5.390	-37.632	64.386	0.27829	-0.11688	0.73514	0.60690	28.5	13111	100
2025-3-13 12:40:10.567	WT901BLE68(E947F43FF2E9)	0.027	0.928	-0.366	0.549	70.740	26.550	116.41	0.97	21.27	9.408	-62.524	0.588	0.52182	0.80728	0.25928	-0.09283	27.5	13111	100
2025-3-13 12:40:10.634	WT901BLE68(490AABDC0D29)	-0.079	0.390	0.048	-14.343	37.720	163.452	97.12	29.26	163.11	22.638	-27.538	62.230	0.27829	-0.11688	0.73514	0.60690	28.5	13111	100
2025-3-13 12:40:10.685	WT901BLE68(E947F43FF2E9)	0.100	0.916	-0.345	-5.615	33.813	16.907	115.55	-2.61	24.07	9.408	-62.524	0.588	0.51755	0.82855	0.16412	0.13638	27.5	13111	100
2025-3-13 12:40:10.724	WT901BLE68(490AABDC0D29)	-0.471	1.225	-0.174	-25.574	31.372	300.293	95.91	2.42	164.74	22.638	-27.538	62.230	0.27829	-0.11688	0.73514	0.60690	28.5	13111	100
2025-3-13 12:40:10.777	WT901BLE68(E947F43FF2E9)	0.035	0.934	-0.322	-13.794	-9.583	37.170	114.08	-5.50	23.16	9.408	-62.524	0.588	0.51755	0.82855	0.16412	0.13638	27.5	13111	100
2025-3-13 12:40:10.846	WT901BLE68(490AABDC0D29)	-1.149	1.727	-0.433	9.277	60.181	270.752	94.33	-26.72	167.62	22.638	-27.538	62.230	-0.15097	0.24927	0.68100	0.67172	28.5	13111	100
2025-3-13 12:40:10.905	WT901BLE68(E947F43FF2E9)	0.075	1.006	-0.295	-12.207	16.724	57.251	112.79	-9.45	21.53	-0.294	-59.976	-1.960	0.51755	0.82855	0.16412	0.13638	27.5	13111	100
2025-3-13 12:40:10.905	WT901BLE68(490AABDC0D29)	0.428	0.874	-0.539	25.635	64.331	-72.327	90.94	-34.33	178.04	22.638	-27.538	62.230	-0.15097	0.24927	0.68100	0.67172	28.5	13111	100
2025-3-13 12:40:10.987	WT901BLE68(E947F43FF2E9)	-0.407	1.212	-0.345	-25.452	22.400	87.769	111.03	-16.40	19.12	-0.294	-59.976	-1.960	0.51755	0.82855	0.16412	0.13638	27.5	13111	100
2025-3-13 12:40:11.23	WT901BLE68(490AABDC0D29)	-0.223	1.201	0.084	0.549	-34.546	-63.660	90.34	-23.99	-178.60	-16.366	-42.336	62.818	-0.15097	0.24927	0.68100	0.67172	28.5	13111	100
2025-3-13 12:40:11.106	WT901BLE68(E947F43FF2E9)	0.742	1.557	-0.558	-22.156	122.070	142.578	107.48	-28.62	19.46	-0.294	-59.976	-1.960	0.52286	0.78323	-0.03320	0.33459	27.5	13111	100
2025-3-13 12:40:11.146	WT901BLE68(490AABDC0D29)	0.137	1.074	-0.226	20.630	-41.748	-70.251	92.01	-14.60	-174.54	-16.366	-42.336	62.818	-0.15097	0.24927	0.68100	0.67172	28.5	13111	100
2025-3-13 12:40:11.167	WT901BLE68(E947F43FF2E9)	0.019	0.720	-0.182	7.690	96.008	104.126	105.68	-42.30	21.40	-0.294	-59.976	-1.960	0.52286	0.78323	-0.03320	0.33459	27.5	13111	100
2025-3-13 12:40:11.266	WT901BLE68(490AABDC0D29)	0.117	1.029	-0.215	13.428	-8.667	-39.917	94.71	-8.85	-178.20	-16.366	-42.336	62.818	-0.05243	0.03552	0.73730	0.67249	28.5	13111	100
2025-3-13 12:40:11.287	WT901BLE68(E947F43FF2E9)	0.103	0.205	0.154	39.734	-1.770	-123.535	106.29	-38.01	23.47	-11.172	-53.018	-10.388	0.52286	0.78323	-0.03320	0.33459	27.5	13111	100
2025-3-13 12:40:11.353	WT901BLE68(490AABDC0D29)	0.140	0.939	-0.242	-3.113	-17.334	-23.010	95.44	-5.87	-179.87	-16.366	-42.336	62.818	-0.05243	0.03552	0.73730	0.67249	28.5	13111	100
2025-3-13 12:40:11.377	WT901BLE68(E947F43FF2E9)	0.186	1.054	-0.125	72.266	-66.895	-255.127	111.88	-14.86	22.59	-11.172	-53.018	-10.388	0.52286	0.78323	-0.03320	0.33459	27.5	13111	100
2025-3-13 12:40:11.445	WT901BLE68(490AABDC0D29)	-0.007	0.963	-0.261	-17.395	-19.348	-32.837	95.44	-2.97	178.57	-1.470	-41.454	64.876	-0.05243	0.03552	0.73730	0.67249	28.5	13111	100
2025-3-13 12:40:11.505	WT901BLE68(E947F43FF2E9)	0.989	1.821	-0.394	48.950	-0.916	-294.800	116.94	12.13	32.53	-11.172	-53.018	-10.388	0.51807	0.78427	0.34000	0.02908	27.5	13111	100
2025-3-13 12:40:11.535	WT901BLE68(490AABDC0D29)	-0.125	0.978	-0.196	-13.489	-18.066	-53.711	94.64	1.14	177.56	-1.470	-41.454	64.876	-0.05243	0.03552	0.73730	0.67249	28.5	13111	100
2025-3-13 12:40:11.646	WT901BLE68(E947F43FF2E9)	-1.606	1.228	0.123	13.672	60.303	-121.155	125.76	26.65	48.86	-11.172	-53.018	-10.388	0.51807	0.78427	0.34000	0.02908	27.5	13111	100
2025-3-13 12:40:11.654	WT901BLE68(490AABDC0D29)	0.245	1.045	-0.309	-26.428	-21.667	-68.054	93.28	7.12	175.90	-1.470	-41.454	64.876	0.08759	-0.02673	0.72101	0.68680	28.5	13111	100
2025-3-13 12:40:11.708	WT901BLE68(E947F43FF2E9)	-0.130	0.582	-0.301	2.319	-28.381	-11.047	121.95	19.11	46.96	31.556	-62.818	3.822	0.51807	0.78427	0.34000	0.02908	27.5	13111	100
2025-3-13 12:40:11.713	WT901BLE68(490AABDC0D29)	0.123	1.440	-0.242	-43.762	-14.343	-102.234	89.96	14.12	174.19	-1.470	-41.454	64.876	0.08759	-0.02673	0.72101	0.68680	28.5	13111	100
2025-3-13 12:40:11.766	WT901BLE68(E947F43FF2E9)	-0.207	1.143	-0.233	11.414	-60.730	88.379	118.83	12.47	43.33	31.556	-62.818	3.822	0.51807	0.78427	0.34000	0.02908	27.5	13111	100
2025-3-13 12:40:11.832	WT901BLE68(490AABDC0D29)	-0.020	1.420	-0.351	-10.498	-5.737	-166.809	86.11	26.00	170.44	21.658	-34.398	58.310	0.08759	-0.02673	0.72101	0.68680	28.5	13111	100
2025-3-13 12:40:11.885	WT901BLE68(E947F43FF2E9)	-0.076	0.917	-0.360	12.817	11.047	44.067	118.47	6.44	45.36	31.556	-62.818	3.822	0.47873	0.78787	0.34622	0.17349	27.5	13111	100
2025-3-13 12:40:11.955	WT901BLE68(490AABDC0D29)	-0.032	0.872	-0.243	-43.823	104.004	-54.810	89.60	37.62	175.45	21.658	-34.398	58.310	0.08759	-0.02673	0.72101	0.68680	28.5	13111	100
2025-3-13 12:40:11.976	WT901BLE68(E947F43FF2E9)	-0.052	0.937	-0.414	-6.531	42.358	25.513	118.70	2.07	46.02	31.556	-62.818	3.822	0.47873	0.78787	0.34622	0.17349	27.5	13111	100
2025-3-13 12:40:12.45	WT901BLE68(490AABDC0D29)	-0.094	0.392	-0.480	-64.941	129.761	138.489	94.35	29.68	-170.20	21.658	-34.398	58.310	0.03619	-0.20462	0.69992	0.68323	28.5	13111	100
2025-3-13 12:40:12.127	WT901BLE68(E947F43FF2E9)	-0.013	0.887	-0.365	-22.278	26.367	11.780	116.92	-1.18	47.88	18.522	-65.856	3.822	0.47873	0.78787	0.34622	0.17349	27.5	13111	100
2025-3-13 12:40:12.187	WT901BLE68(E947F43FF2E9)	0.056	0.958	-0.354	-15.076	24.597	23.315	115.09	-3.44	48.60	18.522	-65.856	3.822	0.47873	0.78787	0.34622	0.17349	27.5	13111	100
2025-3-13 12:40:12.195	WT901BLE68(490AABDC0D29)	-0.559	1.018	-0.607	-38.574	113.281	256.165	93.14	6.66	-161.27	21.658	-34.398	58.310	0.03619	-0.20462	0.69992	0.68323	28.5	13111	100
2025-3-13 12:40:12.310	WT901BLE68(E947F43FF2E9)	0.176	1.040	-0.282	-14.099	13.367	62.134	113.17	-7.22	48.27	18.522	-65.856	3.822	0.47815	0.77682	0.29608	0.28308	27.5	13111	100
2025-3-13 12:40:12.408	WT901BLE68(E947F43FF2E9)	-0.370	1.189	-0.379	-23.987	42.725	89.844	111.56	-14.48	46.95	18.522	-65.856	3.822	0.47815	0.77682	0.29608	0.28308	27.5	13111	100
2025-3-13 12:40:12.409	WT901BLE68(490AABDC0D29)	-1.150	1.712	-0.441	13.550	34.302	278.503	93.87	-21.78	-157.66	-28.028	-37.436	63.210	0.03619	-0.20462	0.69992	0.68323	28.5	13111	100
2025-3-13 12:40:12.409	WT901BLE68(490AABDC0D29)	-0.610	0.994	-0.290	23.315	2.197	-50.171	95.95	-30.73	-156.02	-28.028	-37.436	63.210	0.03619	-0.20462	0.69992	0.68323	28.5	13111	100
2025-3-13 12:40:12.435	WT901BLE68(490AABDC0D29)	0.094	1.609	0.137	19.592	104.248	-125.061	94.37	-21.04	-148.52	-28.028	-37.436	63.210	0.03619	-0.20462	0.69992	0.68323	28.5	13111	100
2025-3-13 12:40:12.547	WT901BLE68(E947F43FF2E9)	0.358	1.729	-0.532	-25.635	77.332	159.058	108.59	-26.45	46.75	-1.470	-62.524	-2.842	0.47815	0.77682	0.29608	0.28308	27.5	13111	100
2025-3-13 12:40:12.575	WT901BLE68(E947F43FF2E9)	0.005	0.913	-0.104	15.259	12.695	138.428	109.49	-42.11	42.68	-1.470	-62.524	-2.842	0.47815	0.77682	0.29608	0.28308	27.5	13111	100
2025-3-13 12:40:12.705	WT901BLE68(490AABDC0D29)	0.229	0.955	-0.321	22.827	0.916	-72.815	94.65	-12.85	-143.48	-28.028	-37.436	63.210	-0.28918	-0.15680	0.71756	0.61383	28.5	13111	100
2025-3-13 12:40:12.728	WT901BLE68(E947F43FF2E9)	0.089	0.064	0.025	3.845	16.357	-106.079	110.68	-42.39	39.68	-1.470	-62.524	-2.842	0.42838	0.79300	0.10480	0.42020	27.5	13111	100
2025-3-13 12:40:12.785	WT901BLE68(E947F43FF2E9)	0.123	0.743	-0.207	31.189	-38.208	-269.165	110.10	-21.67	40.90	-1.470	-62.524	-2.842	0.42838	0.79300	0.10480	0.42020	27.5	13111	100
2025-3-13 12:40:12.855	WT901BLE68(490AABDC0D29)	0.108	0.983	-0.219	12.817	-1.648	-33.997	96.61	-8.48	-147.38	-28.028	-37.436	63.210	-0.28918	-0.15680	0.71756	0.61383	28.5	13111	100
2025-3-13 12:40:12.856	WT901BLE68(490AABDC0D29)	0.097	0.948	-0.286	4.089	-17.761	-29.663	97.94	-5.45	-148.10	-28.028	-37.436	63.210	-0.28918	-0.15680	0.71756	0.61383	28.5	13111	100
2025-3-13 12:40:12.857	WT901BLE68(490AABDC0D29)	0.058	0.932	-0.283	0.610	-20.203	-28.381	98.72	-2.67	-150.83	-16.660	-40.964	65.366	-0.28918	-0.15680	0.71756	0.61383	28.5	13111	100
2025-3-13 12:40:12.911	WT901BLE68(E947F43FF2E9)	1.398	1.868	-0.452	61.523	-52.551	-306.885	113.57	8.00	47.43	29.302	-65.464	1.470	0.42838	0.79300	0.10480	0.42020	27.5	13111	100
2025-3-13 12:40:12.997	WT901BLE68(E947F43FF2E9)	-0.098	1.252	-0.026	16.296	6.042	-84.473	119.92	27.14	56.18	29.302	-65.464	1.470	0.42838	0.79300	0.10480	0.42020	27.5	13111	100
2025-3-13 12:40:13.10	WT901BLE68(490AABDC0D29)	-0.048	0.967	-0.285	-1.099	-29.968	-39.001	99.01	0.80	-154.62	-16.660	-40.964	65.366	-0.11356	-0.17209	0.74054	0.63950	28.5	13111	100
2025-3-13 12:40:13.155	WT901BLE68(490AABDC0D29)	0.039	1.073	-0.377	-9.644	-24.841	-84.595	98.88	6.80	-157.62	-4.606	-41.552	65.660	-0.11356	-0.17209	0.74054	0.63950	28.5	13111	100
2025-3-13 12:40:13.156	WT901BLE68(490AABDC0D29)	0.052	1.438	-0.288	-27.649	-59.937	-101.746	96.91	15.64	-160.90	-4.606	-41.552	65.660	-0.11356	-0.17209	0.74054	0.63950	28.5	13111	100
2025-3-13 12:40:13.237	WT901BLE68(E947F43FF2E9)	0.001	1.029	-0.141	-0.366	-18.188	36.011	115.63	20.56	50.16	29.302	-65.464	1.470	0.53629	0.72198	0.42371	0.10724	27.5	13111	100
2025-3-13 12:40:13.238	WT901BLE68(E947F43FF2E9)	-0.137	1.111	-0.231	16.785	-54.260	100.098	113.95	12.23	46.28	29.302	-65.464	1.470	0.53629	0.72198	0.42371	0.10724	27.5	13111	100
2025-3-13 12:40:13.484	WT901BLE68(490AABDC0D29)	-0.082	1.433	-0.440	14.160	-68.787	-161.133	93.67	27.54	-167.57	-4.606	-41.552	65.660	0.15192	-0.25955	0.68063	0.66794	28.5	13111	100
2025-3-13 12:40:13.485	WT901BLE68(490AABDC0D29)	0.106	0.685	-0.166	5.676	-34.729	-40.039	95.14	39.04	-171.43	-4.606	-41.552	65.660	0.15192	-0.25955	0.68063	0.66794	28.5	13111	100
2025-3-13 12:40:13.545	WT901BLE68(490AABDC0D29)	-0.043	0.442	-0.058	-19.470	57.495	175.171	95.15	30.19	-171.97	13.524	-40.572	64.582	0.15192	-0.25955	0.68063	0.66794	28.5	13111	100
2025-3-13 12:40:13.545	WT901BLE68(490AABDC0D29)	-0.966	1.240	-0.165	-29.602	37.170	314.148	93.27	3.21	-170.60	13.524	-40.572	64.582	0.15192	-0.25955	0.68063	0.66794	28.5	13111	100
2025-3-13 12:40:13.567	WT901BLE68(E947F43FF2E9)	-0.056	0.902	-0.289	-0.671	49.805	34.546	113.49	5.58	47.31	22.638	-71.540	3.234	0.53629	0.72198	0.42371	0.10724	27.5	13111	100
2025-3-13 12:40:13.628	WT901BLE68(E947F43FF2E9)	0.003	0.935	-0.414	2.441	24.536	35.889	113.75	1.29	47.43	22.638	-71.540	3.234	0.53629	0.72198	0.42371	0.10724	27.5	13111	100
2025-3-13 12:40:13.629	WT901BLE68(E947F43FF2E9)	0.010	0.926	-0.310	-8.301	12.634	30.579	112.88	-2.43	48.04	22.638	-71.540	3.234	0.49701	0.76608	0.32040	0.25159	27.5	13111	100
2025-3-13 12:40:13.629	WT901BLE68(E947F43FF2E9)	0.028	0.958	-0.299	-8.301	16.785	27.527	111.81	-5.29	48.15	22.638	-71.540	3.234	0.49701	0.76608	0.32040	0.25159	27.5	13111	100
2025-3-13 12:40:13.747	WT901BLE68(E947F43FF2E9)	0.163	1.012	-0.267	-13.306	27.588	54.382	110.46	-9.53	48.22	9.212	-72.226	1.274	0.49701	0.76608	0.32040	0.25159	27.5	13111	100
2025-3-13 12:40:13.835	WT901BLE68(E947F43FF2E9)	-0.246	1.123	-0.327	-27.405	40.344	75.806	108.19	-16.41	47.63	9.212	-72.226	1.274	0.49701	0.76608	0.32040	0.25159	27.5	13111	100
2025-3-13 12:40:13.926	WT901BLE68(E947F43FF2E9)	0.416	1.491	-0.611	-31.616	83.130	132.202	104.06	-27.04	48.72	9.212	-72.226	1.274	0.43304	0.75412	0.13702	0.47421	27.5	13111	100
2025-3-13 12:40:13.985	WT901BLE68(E947F43FF2E9)	-0.054	0.895	-0.228	18.799	84.900	126.038	102.56	-41.12	50.86	9.212	-72.226	1.274	0.43304	0.75412	0.13702	0.47421	27.5	13111	100
2025-3-13 12:40:13.998	WT901BLE68(490AABDC0D29)	-0.205	1.820	-0.572	21.240	83.313	246.704	91.94	-27.17	-166.59	13.524	-40.572	64.582	-0.32727	0.07535	0.70099	0.62906	28.5	13111	100
2025-3-13 12:40:13.998	WT901BLE68(490AABDC0D29)	0.185	1.072	-0.498	23.315	102.539	-132.385	88.30	-29.34	-153.62	13.524	-40.572	64.582	-0.32727	0.07535	0.70099	0.62906	28.5	13111	100
2025-3-13 12:40:13.999	WT901BLE68(490AABDC0D29)	-0.008	1.202	-0.176	25.452	28.931	-77.087	88.62	-19.08	-148.99	13.524	-40.572	64.582	-0.32727	0.07535	0.70099	0.62906	28.5	13111	100
2025-3-13 12:40:14.168	WT901BLE68(E947F43FF2E9)	0.064	0.209	0.070	48.035	-30.701	-98.816	103.06	-41.34	52.89	-8.722	-68.600	-1.078	0.43304	0.75412	0.13702	0.47421	27.5	13111	100
2025-3-13 12:40:14.286	WT901BLE68(E947F43FF2E9)	0.146	0.985	-0.094	49.438	-95.764	-234.497	110.96	-21.33	44.59	-8.722	-68.600	-1.078	0.43304	0.75412	0.13702	0.47421	27.5	13111	100
2025-3-13 12:40:14.413	WT901BLE68(490AABDC0D29)	0.087	0.860	-0.324	19.775	-53.955	-51.575	91.49	-10.04	-145.17	13.524	-40.572	64.582	-0.32727	0.07535	0.70099	0.62906	28.5	13111	100
2025-3-13 12:40:14.437	WT901BLE68(E947F43FF2E9)	0.858	1.760	-0.336	42.725	28.442	-307.312	113.96	5.21	53.46	-8.722	-68.600	-1.078	0.43304	0.75412	0.13702	0.47421	27.5	13111	100
2025-3-13 12:40:14.438	WT901BLE68(E947F43FF2E9)	-0.038	1.248	0.040	12.512	10.132	-109.497	121.25	24.05	69.03	-8.722	-68.600	-1.078	0.49731	0.63678	0.57690	0.11935	27.5	13111	100
2025-3-13 12:40:14.444	WT901BLE68(490AABDC0D29)	0.133	1.004	-0.293	19.287	-10.254	-35.034	94.28	-5.49	-149.32	13.524	-40.572	64.582	-0.18723	-0.16541	0.71854	0.64899	28.5	13111	100
2025-3-13 12:40:14.445	WT901BLE68(490AABDC0D29)	0.024	0.921	-0.249	3.662	6.409	-32.227	95.17	-2.52	-151.18	13.524	-40.572	64.582	-0.18723	-0.16541	0.71854	0.64899	28.5	13111	100
2025-3-13 12:40:14.446	WT901BLE68(490AABDC0D29)	0.079	0.975	-0.222	4.883	3.235	-24.597	96.11	-0.02	-150.45	13.524	-40.572	64.582	-0.18723	-0.16541	0.71854	0.64899	28.5	13111	100
2025-3-13 12:40:14.446	WT901BLE68(490AABDC0D29)	-0.083	0.984	-0.282	-0.610	-11.047	-48.889	96.81	3.33	-151.44	13.524	-40.572	64.582	-0.18723	-0.16541	0.71854	0.64899	28.5	13111	100
2025-3-13 12:40:14.473	WT901BLE68(490AABDC0D29)	-0.034	1.003	-0.304	-6.042	-20.752	-72.815	96.73	9.31	-153.17	13.524	-40.572	64.582	-0.03574	-0.24289	0.69336	0.67740	28.5	13111	100
2025-3-13 12:40:14.534	WT901BLE68(490AABDC0D29)	0.109	1.219	-0.296	-27.954	-51.147	-82.275	94.58	16.62	-156.59	13.524	-40.572	64.582	-0.03574	-0.24289	0.69336	0.67740	28.5	13111	100
2025-3-13 12:40:14.805	WT901BLE68(490AABDC0D29)	-0.327	1.492	-0.370	-13.977	-59.998	-140.564	90.63	27.14	-162.31	13.524	-40.572	64.582	-0.03574	-0.24289	0.69336	0.67740	28.5	13111	100
2025-3-13 12:40:14.856	WT901BLE68(E947F43FF2E9)	-0.290	0.854	-0.295	3.723	-64.819	50.842	117.98	20.02	65.65	46.942	-62.622	11.368	0.49731	0.63678	0.57690	0.11935	27.5	13111	100
2025-3-13 12:40:14.857	WT901BLE68(E947F43FF2E9)	-0.103	1.029	-0.507	19.531	-47.974	91.614	114.86	13.90	60.31	46.942	-62.622	11.368	0.49731	0.63678	0.57690	0.11935	27.5	13111	100
2025-3-13 12:40:14.857	WT901BLE68(E947F43FF2E9)	-0.020	0.962	-0.252	3.845	49.194	36.316	114.46	6.87	58.63	46.942	-62.622	11.368	0.49731	0.63678	0.57690	0.11935	27.5	13111	100
2025-3-13 12:40:14.865	WT901BLE68(490AABDC0D29)	-0.064	0.657	-0.145	-5.615	58.533	-81.421	92.24	38.64	-161.81	14.112	-45.178	58.996	-0.03574	-0.24289	0.69336	0.67740	28.5	13111	100
2025-3-13 12:40:14.866	WT901BLE68(490AABDC0D29)	-0.151	0.400	-0.253	-42.664	56.946	150.452	94.11	31.99	-156.38	14.112	-45.178	58.996	-0.06461	-0.24698	0.68195	0.68530	28.5	13111	100
2025-3-13 12:40:15.14	WT901BLE68(490AABDC0D29)	-0.537	1.133	-0.365	-18.066	96.863	254.883	93.12	9.35	-152.64	14.112	-45.178	58.996	-0.06461	-0.24698	0.68195	0.68530	28.5	13111	100
2025-3-13 12:40:15.103	WT901BLE68(490AABDC0D29)	-0.642	1.611	-0.440	1.404	79.590	218.994	92.89	-15.45	-143.44	14.112	-45.178	58.996	-0.06461	-0.24698	0.68195	0.68530	28.5	13111	100
2025-3-13 12:40:15.156	WT901BLE68(E947F43FF2E9)	-0.099	0.930	-0.396	9.155	13.306	21.912	115.54	2.95	59.44	46.942	-62.622	11.368	0.49731	0.63678	0.57690	0.11935	27.5	13111	100
2025-3-13 12:40:15.204	WT901BLE68(490AABDC0D29)	0.142	0.963	-0.230	13.733	20.447	-22.034	93.35	-25.05	-140.55	-41.944	-45.864	54.194	-0.06461	-0.24698	0.68195	0.68530	28.5	13111	100
2025-3-13 12:40:15.284	WT901BLE68(490AABDC0D29)	-0.024	1.242	0.158	9.094	40.833	-76.660	92.54	-16.55	-133.46	-41.944	-45.864	54.194	-0.34561	-0.23654	0.68826	0.59225	28.5	13111	100
2025-3-13 12:40:15.336	WT901BLE68(E947F43FF2E9)	-0.021	0.896	-0.377	0.061	22.278	11.414	115.49	0.63	62.15	32.144	-70.168	13.818	0.49731	0.63678	0.57690	0.11935	27.5	13111	100
2025-3-13 12:40:15.344	WT901BLE68(490AABDC0D29)	0.156	1.029	-0.143	15.015	-16.479	-49.561	94.09	-9.24	-131.30	-41.944	-45.864	54.194	-0.34561	-0.23654	0.68826	0.59225	28.5	13111	100
2025-3-13 12:40:15.488	WT901BLE68(E947F43FF2E9)	0.011	0.941	-0.334	-5.859	30.090	16.296	114.80	-1.47	64.50	32.144	-70.168	13.818	0.49731	0.63678	0.57690	0.11935	27.5	13111	100
2025-3-13 12:40:15.489	WT901BLE68(E947F43FF2E9)	0.056	0.927	-0.326	-8.606	15.564	46.082	113.65	-5.06	65.63	32.144	-70.168	13.818	0.49731	0.63678	0.57690	0.11935	27.5	13111	100
2025-3-13 12:40:15.489	WT901BLE68(E947F43FF2E9)	0.072	0.993	-0.364	-11.597	20.874	51.880	112.62	-9.59	65.25	32.144	-70.168	13.818	0.49731	0.63678	0.57690	0.11935	27.5	13111	100
2025-3-13 12:40:15.490	WT901BLE68(E947F43FF2E9)	-0.382	1.154	-0.467	-22.400	34.424	92.224	110.90	-16.85	65.20	32.144	-70.168	13.818	0.40472	0.73203	0.36359	0.40988	27.5	13111	100
2025-3-13 12:40:15.491	WT901BLE68(E947F43FF2E9)	-0.053	1.354	-0.196	-5.859	125.305	126.160	106.87	-29.43	71.12	0.882	-71.638	9.212	0.40472	0.73203	0.36359	0.40988	27.5	13111	100
2025-3-13 12:40:15.666	WT901BLE68(E947F43FF2E9)	-0.107	0.342	-0.379	35.034	42.236	49.316	107.50	-39.67	70.94	0.882	-71.638	9.212	0.40472	0.73203	0.36359	0.40988	27.5	13111	100
2025-3-13 12:40:15.667	WT901BLE68(E947F43FF2E9)	0.189	0.472	0.130	29.480	24.597	-185.181	104.73	-30.38	80.37	0.882	-71.638	9.212	0.31830	0.68231	0.37906	0.53790	27.5	13111	100
2025-3-13 12:40:15.801	WT901BLE68(490AABDC0D29)	0.115	0.955	-0.262	13.550	-12.756	-29.175	95.81	-5.23	-133.98	-33.124	-54.782	55.762	-0.34561	-0.23654	0.68826	0.59225	28.5	13111	100
2025-3-13 12:40:15.801	WT901BLE68(490AABDC0D29)	0.111	0.993	-0.283	-3.357	-19.836	-24.841	97.12	-2.60	-136.15	-33.124	-54.782	55.762	-0.34561	-0.23654	0.68826	0.59225	28.5	13111	100
2025-3-13 12:40:15.802	WT901BLE68(490AABDC0D29)	-0.003	0.901	-0.230	-13.062	-19.409	-39.063	96.44	0.33	-138.89	-33.124	-54.782	55.762	-0.20914	-0.27390	0.69110	0.63522	28.5	13111	100
2025-3-13 12:40:15.802	WT901BLE68(490AABDC0D29)	0.000	0.983	-0.214	-9.888	-9.583	-39.307	95.97	3.91	-139.98	-33.124	-54.782	55.762	-0.20914	-0.27390	0.69110	0.63522	28.5	13111	100
2025-3-13 12:40:15.846	WT901BLE68(E947F43FF2E9)	0.361	1.311	-0.143	41.626	29.175	-278.015	104.22	-6.32	92.03	46.550	-66.346	14.700	0.31830	0.68231	0.37906	0.53790	27.5	13111	100
2025-3-13 12:40:15.847	WT901BLE68(E947F43FF2E9)	0.382	1.711	-0.036	44.189	-6.226	-241.089	109.66	18.95	102.72	46.550	-66.346	14.700	0.31830	0.68231	0.37906	0.53790	27.5	13111	100
2025-3-13 12:40:15.937	WT901BLE68(E947F43FF2E9)	-0.171	1.029	-0.330	-4.822	-41.687	91.370	109.31	23.98	101.48	46.550	-66.346	14.700	0.48544	0.44278	0.66583	0.35333	27.5	13111	100
2025-3-13 12:40:16.6	WT901BLE68(E947F43FF2E9)	-0.059	1.224	-0.052	0.793	-18.738	71.716	106.66	17.11	97.08	46.550	-66.346	14.700	0.48544	0.44278	0.66583	0.35333	27.5	13111	100
2025-3-13 12:40:16.155	WT901BLE68(490AABDC0D29)	-0.193	1.000	-0.251	-18.982	0.488	-58.472	94.98	8.25	-141.05	-18.032	-60.466	54.880	-0.20914	-0.27390	0.69110	0.63522	28.5	13111	100
2025-3-13 12:40:16.155	WT901BLE68(490AABDC0D29)	0.168	1.138	-0.154	-38.879	-20.081	-61.890	92.49	13.87	-142.03	-18.032	-60.466	54.880	-0.20914	-0.27390	0.69110	0.63522	28.5	13111	100
2025-3-13 12:40:16.156	WT901BLE68(490AABDC0D29)	-0.293	1.325	-0.326	-50.415	-9.094	-91.003	87.85	20.27	-144.84	-18.032	-60.466	54.880	-0.20914	-0.27390	0.69110	0.63522	28.5	13111	100
2025-3-13 12:40:16.157	WT901BLE68(490AABDC0D29)	0.185	1.183	-0.288	-25.391	-23.743	-128.845	83.74	30.17	-149.59	-18.032	-60.466	54.880	-0.20914	-0.27390	0.69110	0.63522	28.5	13111	100
2025-3-13 12:40:16.303	WT901BLE68(E947F43FF2E9)	-0.145	0.879	-0.310	5.066	36.133	52.551	107.00	10.17	92.88	52.136	-60.074	13.916	0.48544	0.44278	0.66583	0.35333	27.5	13111	100
2025-3-13 12:40:16.303	WT901BLE68(E947F43FF2E9)	-0.070	0.972	-0.273	16.846	26.001	29.114	108.20	5.61	95.34	52.136	-60.074	13.916	0.48544	0.44278	0.66583	0.35333	27.5	13111	100
2025-3-13 12:40:16.358	WT901BLE68(E947F43FF2E9)	-0.022	0.951	-0.333	-11.780	24.048	26.733	108.77	2.30	96.65	52.136	-60.074	13.916	0.48544	0.44278	0.66583	0.35333	27.5	13111	100
2025-3-13 12:40:16.687	WT901BLE68(E947F43FF2E9)	-0.060	0.943	-0.310	-9.705	10.071	32.654	107.63	-0.68	96.59	52.136	-60.074	13.916	0.38824	0.54086	0.59845	0.44556	27.5	13111	100
2025-3-13 12:40:16.688	WT901BLE68(E947F43FF2E9)	0.037	0.955	-0.313	-12.146	9.277	41.321	106.81	-3.97	95.84	52.136	-60.074	13.916	0.38824	0.54086	0.59845	0.44556	27.5	13111	100
2025-3-13 12:40:16.688	WT901BLE68(E947F43FF2E9)	0.171	0.975	-0.271	-13.367	11.719	57.251	105.85	-8.37	94.55	52.136	-60.074	13.916	0.38824	0.54086	0.59845	0.44556	27.5	13111	100
2025-3-13 12:40:16.747	WT901BLE68(E947F43FF2E9)	-0.053	1.124	-0.321	-20.813	5.310	82.703	104.58	-14.78	93.11	52.136	-60.074	13.916	0.38824	0.54086	0.59845	0.44556	27.5	13111	100
2025-3-13 12:40:16.836	WT901BLE68(E947F43FF2E9)	0.232	1.571	-0.451	-14.404	121.826	114.929	102.52	-23.81	93.08	52.136	-60.074	13.916	0.30432	0.61868	0.46512	0.55515	27.5	13111	100
