time	DeviceName	AccX(g)	AccY(g)	AccZ(g)	AsX(°/s)	AsY(°/s)	AsZ(°/s)	AngleX(°)	AngleY(°)	AngleZ(°)	HX(uT)	HY(uT)	HZ(uT)	Q0()	Q1()	Q2()	Q3()	Temperature(°C)	Version()	Battery level(%)
2025-3-13 9:20:22.36	WT901BLE68(E947F43FF2E9)	-0.031	0.995	-0.059	0.000	0.000	0.000	93.38	1.77	89.70	37.338	-56.742	3.136	0.49414	0.50830	0.52060	0.47571	28.1	13111	100
2025-3-13 9:20:22.45	WT901BLE68(490AABDC0D29)	0.052	-0.995	-0.014	-0.061	-0.061	0.000	-91.60	-2.99	16.48	10.780	33.320	44.198	0.69159	-0.70731	-0.12112	0.08154	26.4	13111	100
2025-3-13 9:20:22.139	WT901BLE68(E947F43FF2E9)	-0.031	0.996	-0.058	0.000	0.000	0.000	93.38	1.77	89.70	37.338	-56.742	3.136	0.49414	0.50830	0.52060	0.47571	28.1	13111	100
2025-3-13 9:20:22.139	WT901BLE68(490AABDC0D29)	0.052	-0.996	-0.015	0.000	-0.366	0.000	-91.55	-2.99	16.47	10.780	33.320	44.198	0.69159	-0.70731	-0.12112	0.08154	26.4	13111	100
2025-3-13 9:20:22.246	WT901BLE68(E947F43FF2E9)	-0.031	0.995	-0.059	0.000	0.000	0.000	93.38	1.77	89.70	37.338	-56.742	3.136	0.49414	0.50830	0.52063	0.47571	28.1	13111	100
2025-3-13 9:20:22.255	WT901BLE68(490AABDC0D29)	0.052	-0.996	-0.015	0.061	0.000	0.000	-91.51	-2.99	16.45	10.780	33.320	44.198	0.69308	-0.70599	-0.12045	0.08130	26.4	13111	100
2025-3-13 9:20:22.307	WT901BLE68(E947F43FF2E9)	-0.031	0.995	-0.058	0.122	-0.061	0.000	93.38	1.77	89.70	37.338	-56.742	3.136	0.49414	0.50830	0.52063	0.47571	28.1	13111	100
2025-3-13 9:20:22.346	WT901BLE68(490AABDC0D29)	0.052	-0.995	-0.013	0.122	0.244	0.000	-91.44	-2.99	16.42	10.780	33.320	44.198	0.69308	-0.70599	-0.12045	0.08130	26.4	13111	100
2025-3-13 9:20:22.426	WT901BLE68(E947F43FF2E9)	-0.030	0.995	-0.059	0.000	0.000	0.000	93.38	1.77	89.69	37.436	-56.644	3.234	0.49414	0.50830	0.52063	0.47571	28.1	13111	100
2025-3-13 9:20:22.463	WT901BLE68(490AABDC0D29)	0.052	-0.995	-0.012	-0.122	0.244	0.000	-91.40	-2.99	16.40	10.780	33.320	44.100	0.69308	-0.70599	-0.12045	0.08130	26.4	13111	100
2025-3-13 9:20:22.518	WT901BLE68(E947F43FF2E9)	-0.031	0.994	-0.059	0.122	0.000	0.000	93.38	1.77	89.69	37.436	-56.644	3.234	0.49414	0.50830	0.52063	0.47571	28.1	13111	100
2025-3-13 9:20:22.525	WT901BLE68(490AABDC0D29)	0.053	-0.995	-0.013	0.061	0.000	0.000	-91.36	-2.99	16.38	10.780	33.320	44.100	0.69308	-0.70599	-0.12045	0.08130	26.4	13111	100
2025-3-13 9:20:22.647	WT901BLE68(E947F43FF2E9)	-0.031	0.995	-0.058	0.000	0.000	0.000	93.38	1.77	89.69	37.436	-56.644	3.234	0.49417	0.50839	0.52060	0.47562	28.1	13111	100
2025-3-13 9:20:22.648	WT901BLE68(490AABDC0D29)	0.053	-0.997	-0.014	0.000	0.061	0.000	-91.32	-2.99	16.36	10.780	33.320	44.100	0.69418	-0.70508	-0.11978	0.08090	26.4	13111	100
2025-3-13 9:20:22.780	WT901BLE68(E947F43FF2E9)	-0.030	0.995	-0.058	0.000	-0.122	0.000	93.38	1.77	89.68	37.436	-56.644	3.234	0.49417	0.50839	0.52060	0.47562	28.1	13111	100
2025-3-13 9:20:22.781	WT901BLE68(490AABDC0D29)	0.052	-0.995	-0.012	0.000	-0.122	0.000	-91.29	-2.99	16.35	10.780	33.320	44.100	0.69418	-0.70508	-0.11978	0.08090	26.4	13111	100
2025-3-13 9:20:22.883	WT901BLE68(E947F43FF2E9)	-0.031	0.995	-0.058	0.000	-0.122	0.000	93.38	1.77	89.68	37.436	-56.644	3.234	0.49417	0.50839	0.52060	0.47562	28.1	13111	100
2025-3-13 9:20:22.883	WT901BLE68(490AABDC0D29)	0.052	-0.996	-0.014	0.061	0.000	0.000	-91.26	-2.99	16.34	10.780	33.320	44.100	0.69418	-0.70508	-0.11978	0.08090	26.4	13111	100
2025-3-13 9:20:22.942	WT901BLE68(E947F43FF2E9)	-0.031	0.994	-0.059	-0.061	0.000	0.000	93.39	1.77	89.68	37.436	-56.644	3.234	0.49417	0.50839	0.52060	0.47562	28.1	13111	100
2025-3-13 9:20:22.948	WT901BLE68(490AABDC0D29)	0.051	-0.995	-0.013	0.000	-0.061	0.000	-91.23	-2.99	16.33	10.780	33.320	44.100	0.69418	-0.70508	-0.11978	0.08090	26.4	13111	100
2025-3-13 9:20:23.56	WT901BLE68(E947F43FF2E9)	-0.030	0.994	-0.058	0.061	-0.061	0.000	93.39	1.77	89.68	37.436	-56.644	3.234	0.49417	0.50842	0.52057	0.47559	28.1	13111	100
2025-3-13 9:20:23.66	WT901BLE68(490AABDC0D29)	0.053	-0.995	-0.014	0.000	0.000	0.000	-91.20	-3.00	16.30	10.682	33.222	44.002	0.69498	-0.70438	-0.11938	0.08066	26.4	13111	100
2025-3-13 9:20:23.117	WT901BLE68(E947F43FF2E9)	-0.031	0.996	-0.059	-0.122	0.000	0.000	93.38	1.77	89.68	37.436	-56.644	3.234	0.49417	0.50842	0.52057	0.47559	28.1	13111	100
2025-3-13 9:20:23.125	WT901BLE68(490AABDC0D29)	0.052	-0.995	-0.012	-0.183	0.061	0.000	-91.18	-3.00	16.30	10.682	33.222	44.002	0.69498	-0.70438	-0.11938	0.08066	26.4	13111	100
2025-3-13 9:20:23.246	WT901BLE68(E947F43FF2E9)	-0.031	0.995	-0.058	0.122	0.061	0.000	93.38	1.77	89.68	37.338	-56.742	3.234	0.49417	0.50842	0.52057	0.47559	28.1	13111	100
2025-3-13 9:20:23.246	WT901BLE68(490AABDC0D29)	0.052	-0.996	-0.014	0.183	0.000	0.000	-91.16	-3.00	16.28	10.682	33.320	44.100	0.69498	-0.70438	-0.11938	0.08066	26.4	13111	100
2025-3-13 9:20:23.328	WT901BLE68(E947F43FF2E9)	-0.031	0.995	-0.059	0.000	0.061	0.000	93.38	1.77	89.69	37.338	-56.742	3.234	0.49417	0.50842	0.52057	0.47559	28.1	13111	100
2025-3-13 9:20:23.348	WT901BLE68(490AABDC0D29)	0.052	-0.995	-0.013	-0.061	0.000	0.000	-91.13	-3.00	16.27	10.682	33.320	44.100	0.69498	-0.70438	-0.11938	0.08066	26.4	13111	100
2025-3-13 9:20:23.447	WT901BLE68(E947F43FF2E9)	-0.031	0.995	-0.059	0.000	0.000	0.000	93.38	1.77	89.69	37.338	-56.742	3.234	0.49414	0.50833	0.52063	0.47565	28.1	13111	100
2025-3-13 9:20:23.455	WT901BLE68(490AABDC0D29)	0.052	-0.995	-0.014	0.000	-0.061	0.000	-91.11	-3.00	16.26	10.682	33.320	44.100	0.69556	-0.70386	-0.11908	0.08047	26.4	13111	100
2025-3-13 9:20:23.548	WT901BLE68(E947F43FF2E9)	-0.032	0.995	-0.059	0.000	-0.061	0.000	93.38	1.77	89.69	37.338	-56.742	3.234	0.49414	0.50833	0.52063	0.47565	28.1	13111	100
2025-3-13 9:20:23.548	WT901BLE68(490AABDC0D29)	0.053	-0.996	-0.013	0.000	-0.061	0.000	-91.09	-3.00	16.25	10.682	33.320	44.100	0.69556	-0.70386	-0.11908	0.08047	26.4	13111	100
2025-3-13 9:20:23.656	WT901BLE68(E947F43FF2E9)	-0.033	0.997	-0.059	-1.282	-1.953	0.610	93.35	1.76	89.63	37.142	-56.742	3.136	0.49414	0.50833	0.52063	0.47565	28.1	13111	100
2025-3-13 9:20:23.669	WT901BLE68(490AABDC0D29)	0.105	-1.026	0.032	0.793	-3.479	2.808	-90.83	-2.81	16.91	10.976	33.222	43.708	0.69556	-0.70386	-0.11908	0.08047	26.4	13111	100
2025-3-13 9:20:23.718	WT901BLE68(E947F43FF2E9)	0.017	0.994	-0.046	-1.770	0.305	-0.488	93.17	1.72	89.54	37.142	-56.742	3.136	0.49414	0.50833	0.52063	0.47565	28.1	13111	100
2025-3-13 9:20:23.754	WT901BLE68(490AABDC0D29)	0.081	-1.100	-0.048	-4.700	11.536	-11.047	-90.68	-3.44	16.11	10.976	33.222	43.708	0.69556	-0.70386	-0.11908	0.08047	26.4	13111	100
2025-3-13 9:20:23.844	WT901BLE68(E947F43FF2E9)	-0.008	1.044	-0.081	1.770	-5.859	9.094	93.16	1.35	89.30	37.142	-56.742	3.136	0.49396	0.51151	0.51566	0.47791	28.1	13111	100
2025-3-13 9:20:23.876	WT901BLE68(490AABDC0D29)	0.202	-0.936	0.018	-4.578	41.199	-16.113	-91.01	-5.19	14.18	10.976	33.222	43.708	0.70050	-0.70322	-0.11383	0.04147	26.4	13111	100
2025-3-13 9:20:23.927	WT901BLE68(E947F43FF2E9)	0.068	1.011	-0.143	14.343	8.118	22.461	94.03	-0.74	90.30	37.142	-56.742	3.136	0.49396	0.51151	0.51566	0.47791	28.1	13111	100
2025-3-13 9:20:23.956	WT901BLE68(490AABDC0D29)	0.319	-0.857	-0.067	-0.305	44.373	-30.823	-90.49	-7.55	9.87	10.976	33.222	43.708	0.70050	-0.70322	-0.11383	0.04147	26.4	13111	100
2025-3-13 9:20:24.55	WT901BLE68(E947F43FF2E9)	0.083	1.048	-0.051	6.775	29.602	20.935	95.51	-2.82	91.13	34.692	-58.702	5.096	0.49396	0.51151	0.51566	0.47791	28.1	13111	100
2025-3-13 9:20:24.55	WT901BLE68(490AABDC0D29)	0.288	-1.111	-0.024	15.869	5.615	-52.185	-89.49	-12.01	8.17	3.038	35.672	45.864	0.70050	-0.70322	-0.11383	0.04147	26.4	13111	100
2025-3-13 9:20:24.147	WT901BLE68(E947F43FF2E9)	0.136	1.014	-0.044	-7.629	18.250	19.104	95.10	-5.03	93.66	34.692	-58.702	5.096	0.49396	0.51151	0.51566	0.47791	28.1	13111	100
2025-3-13 9:20:24.147	WT901BLE68(490AABDC0D29)	0.266	-1.011	0.029	21.301	-2.258	-55.725	-87.46	-17.52	8.77	3.038	35.672	45.864	0.70050	-0.70322	-0.11383	0.04147	26.4	13111	100
2025-3-13 9:20:24.256	WT901BLE68(E947F43FF2E9)	0.142	0.930	0.000	-11.841	-6.226	23.193	94.08	-6.95	94.21	34.692	-58.702	5.096	0.43030	0.53003	0.50082	0.53195	28.1	13111	100
2025-3-13 9:20:24.264	WT901BLE68(490AABDC0D29)	0.267	-0.948	0.132	24.231	-3.357	-41.260	-85.50	-22.27	8.82	3.038	35.672	45.864	0.73111	-0.64792	-0.19797	-0.07990	26.4	13111	100
2025-3-13 9:20:24.354	WT901BLE68(E947F43FF2E9)	0.044	0.946	0.025	-28.259	-15.686	20.142	92.30	-9.23	92.73	34.692	-58.702	5.096	0.43030	0.53003	0.50082	0.53195	28.1	13111	100
2025-3-13 9:20:24.355	WT901BLE68(490AABDC0D29)	0.229	-0.946	0.088	23.376	11.841	-7.813	-82.82	-24.43	8.00	3.038	35.672	45.864	0.73111	-0.64792	-0.19797	-0.07990	26.4	13111	100
2025-3-13 9:20:24.465	WT901BLE68(E947F43FF2E9)	0.077	0.963	-0.042	-34.058	12.024	-7.263	88.96	-9.98	92.54	29.596	-61.348	2.254	0.43030	0.53003	0.50082	0.53195	28.1	13111	100
2025-3-13 9:20:24.475	WT901BLE68(490AABDC0D29)	0.257	-0.882	0.001	2.869	5.066	30.334	-80.99	-22.62	6.14	-6.958	37.926	39.004	0.73111	-0.64792	-0.19797	-0.07990	26.4	13111	100
2025-3-13 9:20:24.528	WT901BLE68(E947F43FF2E9)	0.058	1.014	0.039	-21.484	33.752	-30.457	86.01	-7.77	94.30	29.596	-61.348	2.254	0.43030	0.53003	0.50082	0.53195	28.1	13111	100
2025-3-13 9:20:24.556	WT901BLE68(490AABDC0D29)	0.200	-0.952	0.093	-0.916	-24.109	56.458	-82.28	-18.05	7.83	-6.958	37.926	39.004	0.73111	-0.64792	-0.19797	-0.07990	26.4	13111	100
2025-3-13 9:20:24.656	WT901BLE68(E947F43FF2E9)	-0.026	1.002	0.053	-15.747	44.312	-36.316	83.97	-3.86	98.77	29.596	-61.348	2.254	0.46722	0.44803	0.49463	0.57983	28.1	13111	100
2025-3-13 9:20:24.656	WT901BLE68(490AABDC0D29)	0.297	-0.919	0.074	-26.917	-0.366	79.346	-84.14	-11.17	9.43	-6.958	37.926	39.004	0.73434	-0.66946	-0.11047	0.01614	26.4	13111	100
2025-3-13 9:20:24.760	WT901BLE68(E947F43FF2E9)	0.001	0.978	0.091	-9.155	82.703	-36.865	82.60	0.00	104.73	29.596	-61.348	2.254	0.46722	0.44803	0.49463	0.57983	28.1	13111	100
2025-3-13 9:20:24.760	WT901BLE68(490AABDC0D29)	0.152	-0.899	0.200	-27.588	-7.507	68.481	-87.09	-3.93	11.43	-6.958	37.926	39.004	0.73434	-0.66946	-0.11047	0.01614	26.4	13111	100
2025-3-13 9:20:24.857	WT901BLE68(E947F43FF2E9)	-0.016	0.922	0.126	0.610	47.668	-35.461	82.22	3.89	109.41	38.318	-57.232	4.606	0.46722	0.44803	0.49463	0.57983	28.1	13111	100
2025-3-13 9:20:24.865	WT901BLE68(490AABDC0D29)	-0.138	-0.904	0.167	2.014	-0.488	37.476	-88.08	0.69	12.40	12.740	32.634	42.728	0.73434	-0.66946	-0.11047	0.01614	26.4	13111	100
2025-3-13 9:20:24.958	WT901BLE68(E947F43FF2E9)	-0.196	1.188	0.266	0.427	25.696	-28.992	82.91	7.14	111.75	38.318	-57.232	4.606	0.46722	0.44803	0.49463	0.57983	28.1	13111	100
2025-3-13 9:20:24.958	WT901BLE68(490AABDC0D29)	-0.047	-0.736	0.090	-2.747	-2.991	0.427	-87.91	1.03	12.55	12.740	32.634	42.728	0.73434	-0.66946	-0.11047	0.01614	26.4	13111	100
2025-3-13 9:20:25.67	WT901BLE68(E947F43FF2E9)	-0.133	1.000	0.105	-7.446	12.390	-7.202	82.45	8.32	113.03	38.318	-57.232	4.606	0.45404	0.31351	0.57834	0.60080	28.1	13111	100
2025-3-13 9:20:25.75	WT901BLE68(490AABDC0D29)	-0.045	-0.899	0.149	-1.526	3.540	6.775	-87.62	1.05	13.13	12.740	32.634	42.728	0.71545	-0.68890	-0.07153	0.09100	26.4	13111	100
2025-3-13 9:20:25.127	WT901BLE68(E947F43FF2E9)	-0.153	0.983	0.191	-11.963	17.700	-8.728	81.56	9.04	114.01	38.318	-57.232	4.606	0.45404	0.31351	0.57834	0.60080	28.1	13111	100
2025-3-13 9:20:25.163	WT901BLE68(490AABDC0D29)	-0.046	-0.982	0.052	-5.005	4.150	8.606	-87.86	1.61	13.20	12.740	32.634	42.728	0.71545	-0.68890	-0.07153	0.09100	26.4	13111	100
2025-3-13 9:20:25.261	WT901BLE68(E947F43FF2E9)	-0.210	0.996	0.076	-12.207	2.502	-6.226	80.35	9.92	115.20	41.944	-54.488	6.468	0.45404	0.31351	0.57834	0.60080	28.1	13111	100
2025-3-13 9:20:25.283	WT901BLE68(490AABDC0D29)	-0.088	-0.998	0.024	-0.610	4.333	8.118	-88.12	2.37	13.11	14.798	31.262	43.904	0.71545	-0.68890	-0.07153	0.09100	26.4	13111	100
2025-3-13 9:20:25.363	WT901BLE68(E947F43FF2E9)	-0.211	0.962	0.185	-11.353	1.221	-8.911	79.06	10.52	114.96	41.944	-54.488	6.468	0.45404	0.31351	0.57834	0.60080	28.1	13111	100
2025-3-13 9:20:25.364	WT901BLE68(490AABDC0D29)	-0.103	-1.003	0.035	2.808	8.545	7.813	-88.01	3.13	12.55	14.798	31.262	43.904	0.71545	-0.68890	-0.07153	0.09100	26.4	13111	100
2025-3-13 9:20:25.456	WT901BLE68(E947F43FF2E9)	-0.229	0.957	0.229	-2.502	-9.033	-10.864	78.29	11.41	114.31	41.944	-54.488	6.468	0.47318	0.27567	0.56921	0.61319	28.1	13111	100
2025-3-13 9:20:25.465	WT901BLE68(490AABDC0D29)	-0.106	-0.985	0.075	-1.892	4.944	10.864	-87.94	4.05	11.94	14.798	31.262	43.904	0.71051	-0.69476	-0.04385	0.10223	26.4	13111	100
2025-3-13 9:20:25.558	WT901BLE68(E947F43FF2E9)	-0.246	0.964	0.217	3.174	-7.446	-8.545	78.25	12.20	113.44	41.944	-54.488	6.468	0.47318	0.27567	0.56921	0.61319	28.1	13111	100
2025-3-13 9:20:25.558	WT901BLE68(490AABDC0D29)	-0.135	-0.994	0.028	-10.193	-4.944	12.878	-88.75	5.27	12.24	14.798	31.262	43.904	0.71051	-0.69476	-0.04385	0.10223	26.4	13111	100
2025-3-13 9:20:25.667	WT901BLE68(E947F43FF2E9)	-0.235	0.947	0.224	5.676	-9.766	2.014	78.33	12.29	112.88	43.708	-52.822	4.508	0.47318	0.27567	0.56921	0.61319	28.1	13111	100
2025-3-13 9:20:25.679	WT901BLE68(490AABDC0D29)	-0.129	-1.009	-0.010	-10.437	3.052	8.301	-89.71	6.26	12.38	16.954	29.498	46.060	0.71051	-0.69476	-0.04385	0.10223	26.4	13111	100
2025-3-13 9:20:25.759	WT901BLE68(E947F43FF2E9)	-0.079	0.961	0.202	10.254	-3.113	11.108	78.86	11.37	112.65	43.708	-52.822	4.508	0.47318	0.27567	0.56921	0.61319	28.1	13111	100
2025-3-13 9:20:25.765	WT901BLE68(490AABDC0D29)	-0.125	-0.996	-0.031	-11.292	1.404	-0.732	-90.74	6.55	12.45	16.954	29.498	46.060	0.71051	-0.69476	-0.04385	0.10223	26.4	13111	100
2025-3-13 9:20:25.876	WT901BLE68(E947F43FF2E9)	-0.175	0.977	0.280	12.756	12.817	20.691	80.17	9.85	113.61	43.708	-52.822	4.508	0.45255	0.29562	0.57666	0.61252	28.1	13111	100
2025-3-13 9:20:25.885	WT901BLE68(490AABDC0D29)	-0.108	-0.995	-0.040	3.052	3.052	-7.019	-91.25	6.15	12.20	16.954	29.498	46.060	0.69177	-0.71252	-0.04037	0.10968	26.4	13111	100
2025-3-13 9:20:25.938	WT901BLE68(E947F43FF2E9)	-0.129	0.981	0.088	3.235	49.805	23.376	81.34	8.07	118.39	43.708	-52.822	4.508	0.45255	0.29562	0.57666	0.61252	28.1	13111	100
2025-3-13 9:20:25.963	WT901BLE68(490AABDC0D29)	-0.135	-0.990	-0.005	4.822	-2.258	-5.188	-90.88	5.54	12.22	16.954	29.498	46.060	0.69177	-0.71252	-0.04037	0.10968	26.4	13111	100
2025-3-13 9:20:26.59	WT901BLE68(E947F43FF2E9)	-0.071	0.972	0.115	6.104	23.987	17.273	82.05	6.56	122.22	39.298	-56.056	9.898	0.45255	0.29562	0.57666	0.61252	28.1	13111	100
2025-3-13 9:20:26.64	WT901BLE68(490AABDC0D29)	-0.108	-0.994	-0.082	6.226	-2.319	1.465	-90.38	5.26	12.40	16.072	29.890	46.158	0.69177	-0.71252	-0.04037	0.10968	26.4	13111	100
2025-3-13 9:20:26.160	WT901BLE68(E947F43FF2E9)	-0.019	1.015	0.019	14.160	22.034	13.000	83.73	5.50	123.45	39.298	-56.056	9.898	0.45255	0.29562	0.57666	0.61252	28.1	13111	100
2025-3-13 9:20:26.160	WT901BLE68(490AABDC0D29)	-0.114	-0.996	0.006	-2.380	-5.554	-1.404	-90.08	5.42	13.08	16.072	29.890	46.158	0.69177	-0.71252	-0.04037	0.10968	26.4	13111	100
2025-3-13 9:20:26.267	WT901BLE68(E947F43FF2E9)	-0.058	1.009	0.140	-2.991	70.374	16.663	84.46	4.52	128.30	39.298	-56.056	9.898	0.33350	0.25696	0.62213	0.65997	28.1	13111	100
2025-3-13 9:20:26.281	WT901BLE68(490AABDC0D29)	-0.098	-0.991	0.035	3.235	-3.052	0.305	-89.98	5.39	13.47	16.072	29.890	46.158	0.69647	-0.70612	-0.04971	0.11710	26.4	13111	100
2025-3-13 9:20:26.360	WT901BLE68(E947F43FF2E9)	-0.139	0.956	0.195	-7.080	28.625	4.822	84.98	4.51	137.48	39.298	-56.056	9.898	0.33350	0.25696	0.62213	0.65997	28.1	13111	100
2025-3-13 9:20:26.365	WT901BLE68(490AABDC0D29)	-0.164	-1.007	0.030	-9.766	-0.427	6.714	-90.30	5.63	13.56	16.072	29.890	46.158	0.69647	-0.70612	-0.04971	0.11710	26.4	13111	100
2025-3-13 9:20:26.478	WT901BLE68(E947F43FF2E9)	-0.037	1.029	-0.031	-0.427	-2.991	-6.104	85.12	4.21	136.63	33.908	-57.722	17.150	0.33350	0.25696	0.62213	0.65997	28.1	13111	100
2025-3-13 9:20:26.485	WT901BLE68(490AABDC0D29)	-0.104	-0.977	-0.053	-16.479	4.089	0.305	-91.65	6.15	13.68	16.366	29.498	47.334	0.69647	-0.70612	-0.04971	0.11710	26.4	13111	100
2025-3-13 9:20:26.548	WT901BLE68(E947F43FF2E9)	-0.068	0.952	0.179	0.000	0.000	1.648	84.75	4.49	136.31	33.908	-57.722	17.150	0.33350	0.25696	0.62213	0.65997	28.1	13111	100
2025-3-13 9:20:26.575	WT901BLE68(490AABDC0D29)	-0.061	-0.995	-0.048	-26.428	-0.671	-13.000	-93.66	5.42	13.61	16.366	29.498	47.334	0.69647	-0.70612	-0.04971	0.11710	26.4	13111	100
2025-3-13 9:20:26.661	WT901BLE68(E947F43FF2E9)	-0.029	0.978	0.161	-1.343	0.000	-0.732	84.69	4.55	135.65	33.908	-57.722	17.150	0.30484	0.22839	0.63367	0.67325	28.1	13111	100
2025-3-13 9:20:26.694	WT901BLE68(490AABDC0D29)	0.115	-1.210	-0.149	-38.330	-23.682	-10.498	-96.45	4.24	14.34	16.366	29.498	47.334	0.62823	-0.76144	-0.08771	0.13312	26.4	13111	100
2025-3-13 9:20:26.749	WT901BLE68(E947F43FF2E9)	-0.103	0.992	0.076	1.099	-3.174	-1.221	84.79	4.36	134.84	33.908	-57.722	17.150	0.30484	0.22839	0.63367	0.67325	28.1	13111	100
2025-3-13 9:20:26.754	WT901BLE68(490AABDC0D29)	0.123	-1.252	0.005	-96.863	-88.562	55.908	-103.00	7.47	20.21	16.366	29.498	47.334	0.62823	-0.76144	-0.08771	0.13312	26.4	13111	100
2025-3-13 9:20:26.868	WT901BLE68(E947F43FF2E9)	-0.060	0.997	0.109	-1.038	4.578	-8.545	84.57	5.00	134.25	34.496	-57.526	17.052	0.30484	0.22839	0.63367	0.67325	28.1	13111	100
2025-3-13 9:20:26.875	WT901BLE68(490AABDC0D29)	0.197	-1.055	0.329	15.503	-266.968	75.806	-101.80	19.22	38.34	27.146	20.580	37.338	0.62823	-0.76144	-0.08771	0.13312	26.4	13111	100
2025-3-13 9:20:26.955	WT901BLE68(E947F43FF2E9)	-0.070	1.002	0.094	-0.244	6.226	-7.263	84.60	5.60	134.39	34.496	-57.526	17.052	0.30484	0.22839	0.63367	0.67325	28.1	13111	100
2025-3-13 9:20:26.965	WT901BLE68(490AABDC0D29)	0.027	-0.530	0.047	46.143	-130.127	-63.416	-91.08	21.13	55.93	27.146	20.580	37.338	0.62823	-0.76144	-0.08771	0.13312	26.4	13111	100
2025-3-13 9:20:27.78	WT901BLE68(E947F43FF2E9)	-0.103	1.000	0.103	0.793	5.371	-14.709	84.69	6.61	134.26	34.496	-57.526	17.052	0.32715	0.21616	0.63831	0.66235	28.1	13111	100
2025-3-13 9:20:27.85	WT901BLE68(490AABDC0D29)	-0.066	-0.716	-0.134	35.767	-62.622	-154.968	-85.02	7.38	62.72	27.146	20.580	37.338	0.65515	-0.54941	-0.38751	0.34445	26.4	13111	100
2025-3-13 9:20:27.167	WT901BLE68(E947F43FF2E9)	-0.193	0.985	0.116	-1.526	8.362	-24.963	84.63	8.37	134.39	34.496	-57.526	17.052	0.32715	0.21616	0.63831	0.66235	28.1	13111	100
2025-3-13 9:20:27.174	WT901BLE68(490AABDC0D29)	-0.343	-0.910	-0.436	-22.339	-2.136	-178.101	-84.91	-10.00	61.81	27.146	20.580	37.338	0.65515	-0.54941	-0.38751	0.34445	26.4	13111	100
2025-3-13 9:20:27.285	WT901BLE68(E947F43FF2E9)	-0.283	0.975	0.115	4.517	2.747	-38.147	84.70	11.51	134.02	38.710	-54.194	18.032	0.32715	0.21616	0.63831	0.66235	28.1	13111	100
2025-3-13 9:20:27.295	WT901BLE68(490AABDC0D29)	1.318	-1.537	0.073	-30.884	-26.978	-130.310	-89.52	-24.76	60.89	-12.740	38.514	32.536	0.65515	-0.54941	-0.38751	0.34445	26.4	13111	100
2025-3-13 9:20:27.350	WT901BLE68(E947F43FF2E9)	-0.030	1.159	0.094	15.259	-9.094	-50.659	86.30	15.79	132.98	38.710	-54.194	18.032	0.32715	0.21616	0.63831	0.66235	28.1	13111	100
2025-3-13 9:20:27.357	WT901BLE68(490AABDC0D29)	0.140	-1.086	-0.113	-5.188	44.312	49.316	-88.75	-23.71	59.38	-12.740	38.514	32.536	0.65515	-0.54941	-0.38751	0.34445	26.4	13111	100
2025-3-13 9:20:27.468	WT901BLE68(E947F43FF2E9)	0.023	1.552	-0.104	0.244	34.180	-99.304	87.66	22.10	133.39	38.710	-54.194	18.032	0.32715	0.21616	0.63831	0.66235	28.1	13111	100
2025-3-13 9:20:27.474	WT901BLE68(490AABDC0D29)	0.153	-1.058	0.039	30.579	-10.803	49.316	-87.28	-15.48	57.69	-12.740	38.514	32.536	0.65515	-0.54941	-0.38751	0.34445	26.4	13111	100
2025-3-13 9:20:27.555	WT901BLE68(E947F43FF2E9)	0.213	1.479	0.407	-37.720	42.236	-120.483	88.95	34.76	139.83	38.710	-54.194	18.032	0.43207	0.02472	0.70093	0.56683	28.1	13111	100
2025-3-13 9:20:27.565	WT901BLE68(490AABDC0D29)	0.122	-0.984	0.065	6.226	-1.526	36.133	-85.52	-11.11	55.73	-12.740	38.514	32.536	0.67667	-0.56415	-0.37872	0.28342	26.4	13111	100
2025-3-13 9:20:27.678	WT901BLE68(E947F43FF2E9)	0.084	0.411	-0.107	-89.844	64.453	8.850	87.83	42.17	148.99	51.254	-46.158	22.148	0.43207	0.02472	0.70093	0.56683	28.1	13111	100
2025-3-13 9:20:27.685	WT901BLE68(490AABDC0D29)	0.077	-0.962	0.111	-4.578	-2.014	22.217	-85.43	-8.10	52.54	-0.784	34.398	26.460	0.67667	-0.56415	-0.37872	0.28342	26.4	13111	100
2025-3-13 9:20:27.768	WT901BLE68(E947F43FF2E9)	-0.487	0.472	-0.360	-59.143	30.579	212.219	82.36	27.24	152.36	51.254	-46.158	22.148	0.43207	0.02472	0.70093	0.56683	28.1	13111	100
2025-3-13 9:20:27.772	WT901BLE68(490AABDC0D29)	0.070	-1.000	0.042	-5.554	-1.404	22.400	-86.05	-5.89	50.44	-0.784	34.398	26.460	0.67667	-0.56415	-0.37872	0.28342	26.4	13111	100
2025-3-13 9:20:27.888	WT901BLE68(E947F43FF2E9)	-0.409	1.156	-0.574	-0.793	100.342	250.610	83.40	1.91	160.17	51.254	-46.158	22.148	0.03989	0.19806	0.65338	0.72949	28.1	13111	100
2025-3-13 9:20:27.894	WT901BLE68(490AABDC0D29)	-0.026	-0.990	0.071	-6.165	-3.784	26.184	-86.59	-3.56	48.10	-0.784	34.398	26.460	0.66492	-0.63333	-0.27856	0.28119	26.4	13111	100
2025-3-13 9:20:27.951	WT901BLE68(E947F43FF2E9)	-0.263	1.657	0.061	39.490	-3.784	174.866	87.56	-19.71	161.95	51.254	-46.158	22.148	0.03989	0.19806	0.65338	0.72949	28.1	13111	100
2025-3-13 9:20:27.985	WT901BLE68(490AABDC0D29)	-0.109	-0.990	0.039	-20.020	-5.737	44.250	-87.85	-0.20	46.39	-0.784	34.398	26.460	0.66492	-0.63333	-0.27856	0.28119	26.4	13111	100
2025-3-13 9:20:28.70	WT901BLE68(E947F43FF2E9)	-0.220	1.004	-0.037	-0.916	-26.184	-71.289	87.11	-17.28	167.40	5.194	-59.192	25.284	0.03989	0.19806	0.65338	0.72949	28.1	13111	100
2025-3-13 9:20:28.104	WT901BLE68(490AABDC0D29)	0.182	-1.088	-0.096	-44.312	-6.836	47.119	-90.92	4.04	44.85	8.134	32.242	30.184	0.66492	-0.63333	-0.27856	0.28119	26.4	13111	100
2025-3-13 9:20:28.155	WT901BLE68(E947F43FF2E9)	-0.089	1.125	0.050	-7.507	-16.663	-85.022	87.81	-8.54	164.11	5.194	-59.192	25.284	0.03989	0.19806	0.65338	0.72949	28.1	13111	100
2025-3-13 9:20:28.166	WT901BLE68(490AABDC0D29)	-0.381	-1.466	0.096	-39.978	-2.319	103.394	-94.91	10.04	43.34	8.134	32.242	30.184	0.66492	-0.63333	-0.27856	0.28119	26.4	13111	100
2025-3-13 9:20:28.278	WT901BLE68(E947F43FF2E9)	-0.030	1.187	-0.034	-25.452	-37.048	-42.969	86.78	-3.64	160.87	5.194	-59.192	25.284	0.11932	0.12875	0.67328	0.71817	28.1	13111	100
2025-3-13 9:20:28.285	WT901BLE68(490AABDC0D29)	0.886	-1.356	0.352	-90.637	-15.930	131.104	-102.18	22.40	39.20	8.134	32.242	30.184	0.52200	-0.72675	-0.17270	0.41162	26.4	13111	100
2025-3-13 9:20:28.370	WT901BLE68(E947F43FF2E9)	-0.044	0.958	0.086	-2.441	-4.761	-34.119	86.46	0.42	158.91	5.194	-59.192	25.284	0.11932	0.12875	0.67328	0.71817	28.1	13111	100
2025-3-13 9:20:28.375	WT901BLE68(490AABDC0D29)	0.235	-0.542	0.208	28.809	48.096	-147.095	-96.21	20.84	48.76	8.134	32.242	30.184	0.52200	-0.72675	-0.17270	0.41162	26.4	13111	100
2025-3-13 9:20:28.488	WT901BLE68(E947F43FF2E9)	-0.015	0.985	0.043	6.104	0.671	-29.236	86.96	3.19	157.64	21.364	-60.564	25.186	0.11932	0.12875	0.67328	0.71817	28.1	13111	100
2025-3-13 9:20:28.495	WT901BLE68(490AABDC0D29)	-1.696	-1.215	-0.087	72.388	-39.124	-317.993	-89.63	-7.04	50.41	-5.292	35.280	19.404	0.52200	-0.72675	-0.17270	0.41162	26.4	13111	100
2025-3-13 9:20:28.558	WT901BLE68(E947F43FF2E9)	-0.002	1.028	0.053	15.320	7.019	-50.964	87.92	6.43	157.37	21.364	-60.564	25.186	0.11932	0.12875	0.67328	0.71817	28.1	13111	100
2025-3-13 9:20:28.585	WT901BLE68(490AABDC0D29)	-0.125	-1.688	-0.272	21.667	34.119	-153.137	-82.62	-33.53	45.96	-5.292	35.280	19.404	0.52200	-0.72675	-0.17270	0.41162	26.4	13111	100
2025-3-13 9:20:28.696	WT901BLE68(E947F43FF2E9)	-0.034	1.488	0.203	18.677	23.010	-86.182	89.65	12.80	157.12	21.364	-60.564	25.186	0.23178	-0.00192	0.71408	0.66049	28.1	13111	100
2025-3-13 9:20:28.705	WT901BLE68(490AABDC0D29)	0.171	-1.541	-1.025	-94.421	37.292	86.426	-80.42	-28.30	40.46	-5.292	35.280	19.404	0.73611	-0.55292	-0.34558	0.18124	26.4	13111	100
2025-3-13 9:20:28.756	WT901BLE68(E947F43FF2E9)	0.023	0.956	0.251	-8.606	143.005	-141.357	92.48	24.05	165.76	21.364	-60.564	25.186	0.23178	-0.00192	0.71408	0.66049	28.1	13111	100
2025-3-13 9:20:28.764	WT901BLE68(490AABDC0D29)	0.130	-1.037	-0.061	16.846	15.686	65.674	-80.80	-17.23	42.75	-5.292	35.280	19.404	0.73611	-0.55292	-0.34558	0.18124	26.4	13111	100
2025-3-13 9:20:28.878	WT901BLE68(E947F43FF2E9)	0.101	0.703	0.028	-24.475	-30.762	17.456	94.64	29.38	173.00	31.654	-53.116	31.850	0.23178	-0.00192	0.71408	0.66049	28.1	13111	100
2025-3-13 9:20:28.885	WT901BLE68(490AABDC0D29)	0.111	-0.952	0.138	-3.784	7.019	25.940	-80.99	-12.83	41.14	1.274	34.398	16.366	0.73611	-0.55292	-0.34558	0.18124	26.4	13111	100
2025-3-13 9:20:28.970	WT901BLE68(E947F43FF2E9)	0.009	0.882	-0.116	-29.541	-10.803	129.333	90.34	20.62	168.56	31.654	-53.116	31.850	0.23178	-0.00192	0.71408	0.66049	28.1	13111	100
2025-3-13 9:20:28.974	WT901BLE68(490AABDC0D29)	-0.008	-0.984	0.094	-6.470	2.441	33.936	-81.82	-9.65	39.93	1.274	34.398	16.366	0.73611	-0.55292	-0.34558	0.18124	26.4	13111	100
2025-3-13 9:20:29.88	WT901BLE68(E947F43FF2E9)	-0.335	1.238	-0.177	-25.696	8.911	192.627	87.33	3.10	166.87	31.654	-53.116	31.850	0.04007	0.12912	0.67197	0.72806	28.1	13111	100
2025-3-13 9:20:29.96	WT901BLE68(490AABDC0D29)	-0.033	-1.002	0.043	-15.686	-4.089	34.668	-83.24	-5.75	39.71	1.274	34.398	16.366	0.70151	-0.62869	-0.24417	0.23001	26.4	13111	100
2025-3-13 9:20:29.175	WT901BLE68(E947F43FF2E9)	-1.002	1.233	-0.229	-8.789	-41.443	155.457	86.21	-15.28	165.28	31.654	-53.116	31.850	0.04007	0.12912	0.67197	0.72806	28.1	13111	100
2025-3-13 9:20:29.185	WT901BLE68(490AABDC0D29)	-0.042	-0.997	0.073	-24.109	-3.662	31.189	-85.27	-2.43	38.95	1.274	34.398	16.366	0.70151	-0.62869	-0.24417	0.23001	26.4	13111	100
2025-3-13 9:20:29.297	WT901BLE68(E947F43FF2E9)	-0.666	0.978	-0.018	-10.315	-69.824	-68.298	87.07	-19.45	162.73	6.762	-60.956	28.518	0.04007	0.12912	0.67197	0.72806	28.1	13111	100
2025-3-13 9:20:29.304	WT901BLE68(490AABDC0D29)	0.401	-1.147	-0.055	-49.133	-2.869	48.157	-88.59	1.10	38.24	13.524	32.536	23.324	0.70151	-0.62869	-0.24417	0.23001	26.4	13111	100
2025-3-13 9:20:29.357	WT901BLE68(E947F43FF2E9)	-0.037	1.362	0.283	-25.757	-72.571	-96.375	86.03	-8.96	160.87	6.762	-60.956	28.518	0.04007	0.12912	0.67197	0.72806	28.1	13111	100
2025-3-13 9:20:29.395	WT901BLE68(490AABDC0D29)	-0.201	-1.593	0.160	-42.725	56.274	156.189	-93.32	9.82	37.02	13.524	32.536	23.324	0.70151	-0.62869	-0.24417	0.23001	26.4	13111	100
2025-3-13 9:20:29.477	WT901BLE68(E947F43FF2E9)	-0.025	0.500	0.021	-12.390	-9.827	-46.631	84.09	-2.53	158.93	6.762	-60.956	28.518	0.14490	0.12967	0.65485	0.73026	28.1	13111	100
2025-3-13 9:20:29.514	WT901BLE68(490AABDC0D29)	0.061	-0.799	0.149	-13.123	-22.827	56.030	-100.29	20.65	28.76	13.524	32.536	23.324	0.61575	-0.72000	-0.12149	0.29590	26.4	13111	100
2025-3-13 9:20:29.566	WT901BLE68(E947F43FF2E9)	-0.021	0.991	0.083	-0.793	-2.930	-23.071	83.75	0.76	157.27	6.762	-60.956	28.518	0.14490	0.12967	0.65485	0.73026	28.1	13111	100
2025-3-13 9:20:29.575	WT901BLE68(490AABDC0D29)	0.042	-0.591	-0.042	57.617	0.122	-133.850	-93.61	15.31	34.21	13.524	32.536	23.324	0.61575	-0.72000	-0.12149	0.29590	26.4	13111	100
2025-3-13 9:20:29.687	WT901BLE68(E947F43FF2E9)	-0.099	0.978	0.073	2.747	-2.319	-34.363	83.76	3.25	156.29	22.050	-63.014	25.872	0.14490	0.12967	0.65485	0.73026	28.1	13111	100
2025-3-13 9:20:29.696	WT901BLE68(490AABDC0D29)	-0.147	-1.151	0.011	83.069	-20.508	-224.670	-85.26	-4.21	37.55	2.156	35.378	19.796	0.61575	-0.72000	-0.12149	0.29590	26.4	13111	100
2025-3-13 9:20:29.776	WT901BLE68(E947F43FF2E9)	-0.147	1.018	0.066	-1.038	-6.775	-49.194	83.92	7.32	154.84	22.050	-63.014	25.872	0.14490	0.12967	0.65485	0.73026	28.1	13111	100
2025-3-13 9:20:29.785	WT901BLE68(490AABDC0D29)	-0.136	-1.429	-0.278	30.457	128.296	-160.278	-76.45	-22.74	27.84	2.156	35.378	19.796	0.61575	-0.72000	-0.12149	0.29590	26.4	13111	100
2025-3-13 9:20:29.897	WT901BLE68(E947F43FF2E9)	0.316	1.165	-0.009	2.319	-11.230	-60.120	83.98	12.11	153.02	22.050	-63.014	25.872	0.27686	0.05716	0.66934	0.68698	28.1	13111	100
2025-3-13 9:20:29.905	WT901BLE68(490AABDC0D29)	0.486	-2.112	-0.962	13.062	-42.297	73.792	-71.13	-20.97	10.52	2.156	35.378	19.796	0.79459	-0.57333	-0.19711	0.03085	26.4	13111	100
2025-3-13 9:20:29.959	WT901BLE68(E947F43FF2E9)	0.626	1.816	-0.042	-7.813	14.038	-168.457	84.01	22.47	150.60	22.050	-63.014	25.872	0.27686	0.05716	0.66934	0.68698	28.1	13111	100
2025-3-13 9:20:29.993	WT901BLE68(490AABDC0D29)	0.151	-0.765	0.209	-18.066	26.367	30.518	-74.32	-15.39	16.14	2.156	35.378	19.796	0.79459	-0.57333	-0.19711	0.03085	26.4	13111	100
2025-3-13 9:20:30.106	WT901BLE68(E947F43FF2E9)	0.480	0.311	0.247	32.593	4.456	-48.950	86.87	36.02	153.20	42.826	-50.666	27.244	0.27686	0.05716	0.66934	0.68698	28.1	13111	100
2025-3-13 9:20:30.115	WT901BLE68(490AABDC0D29)	0.073	-0.945	0.210	-10.925	-23.071	48.279	-76.66	-9.92	16.37	4.312	37.534	20.972	0.79459	-0.57333	-0.19711	0.03085	26.4	13111	100
2025-3-13 9:20:30.166	WT901BLE68(E947F43FF2E9)	-0.150	0.589	0.234	7.141	-59.204	183.044	85.90	23.99	147.71	42.826	-50.666	27.244	0.27686	0.05716	0.66934	0.68698	28.1	13111	100
2025-3-13 9:20:30.175	WT901BLE68(490AABDC0D29)	0.036	-0.965	0.138	-17.883	-12.390	30.029	-79.20	-6.11	16.98	4.312	37.534	20.972	0.79459	-0.57333	-0.19711	0.03085	26.4	13111	100
2025-3-13 9:20:30.288	WT901BLE68(E947F43FF2E9)	-1.458	1.284	-0.145	-2.014	36.987	266.113	86.01	-1.75	149.36	42.826	-50.666	27.244	0.09406	0.31833	0.61371	0.71628	28.1	13111	100
2025-3-13 9:20:30.296	WT901BLE68(490AABDC0D29)	0.011	-0.982	0.079	-28.870	-0.793	31.372	-81.98	-3.14	17.74	4.312	37.534	20.972	0.73154	-0.66345	-0.10931	0.11240	26.4	13111	100
2025-3-13 9:20:30.376	WT901BLE68(E947F43FF2E9)	-0.155	1.466	0.146	22.400	-135.010	129.395	88.71	-23.05	143.54	42.826	-50.666	27.244	0.09406	0.31833	0.61371	0.71628	28.1	13111	100
2025-3-13 9:20:30.385	WT901BLE68(490AABDC0D29)	0.425	-0.991	0.021	-52.185	2.747	51.575	-86.00	0.81	18.14	4.312	37.534	20.972	0.73154	-0.66345	-0.10931	0.11240	26.4	13111	100
2025-3-13 9:20:30.496	WT901BLE68(E947F43FF2E9)	-0.081	1.034	0.542	-44.189	-57.861	-135.254	85.41	-13.79	145.77	24.304	-66.836	25.774	0.09406	0.31833	0.61371	0.71628	28.1	13111	100
2025-3-13 9:20:30.503	WT901BLE68(490AABDC0D29)	-0.379	-1.733	0.065	-46.570	46.570	114.258	-91.65	8.53	17.35	22.736	30.380	36.358	0.73154	-0.66345	-0.10931	0.11240	26.4	13111	100
2025-3-13 9:20:30.586	WT901BLE68(E947F43FF2E9)	-0.017	0.873	0.094	-25.757	-4.822	-28.870	83.14	-5.41	142.18	24.304	-66.836	25.774	0.09406	0.31833	0.61371	0.71628	28.1	13111	100
2025-3-13 9:20:30.596	WT901BLE68(490AABDC0D29)	0.095	-0.901	0.033	-62.988	121.094	110.107	-99.90	20.21	6.42	22.736	30.380	36.358	0.73154	-0.66345	-0.10931	0.11240	26.4	13111	100
2025-3-13 9:20:30.706	WT901BLE68(E947F43FF2E9)	-0.059	0.983	0.087	-4.883	3.845	-20.264	82.55	-2.28	142.20	24.304	-66.836	25.774	0.24396	0.21823	0.62109	0.71201	28.1	13111	100
2025-3-13 9:20:30.714	WT901BLE68(490AABDC0D29)	-0.018	-0.560	-0.081	49.561	26.794	-25.879	-98.96	23.20	5.23	22.736	30.380	36.358	0.67938	-0.71967	0.05139	0.13327	26.4	13111	100
2025-3-13 9:20:30.765	WT901BLE68(E947F43FF2E9)	-0.175	0.993	0.070	-4.211	-0.061	-37.048	82.25	0.76	141.39	24.304	-66.836	25.774	0.24396	0.21823	0.62109	0.71201	28.1	13111	100
2025-3-13 9:20:30.804	WT901BLE68(490AABDC0D29)	0.131	-0.842	-0.143	81.482	5.310	-139.893	-91.64	13.74	6.54	22.736	30.380	36.358	0.67938	-0.71967	0.05139	0.13327	26.4	13111	100
2025-3-13 9:20:30.889	WT901BLE68(E947F43FF2E9)	-0.179	1.008	0.037	-2.502	2.136	-33.936	82.12	4.58	140.54	37.436	-64.680	22.344	0.24396	0.21823	0.62109	0.71201	28.1	13111	100
2025-3-13 9:20:30.941	WT901BLE68(490AABDC0D29)	0.126	-1.198	-0.168	101.379	-4.761	-181.152	-82.64	-2.83	7.70	3.136	46.942	28.812	0.67938	-0.71967	0.05139	0.13327	26.4	13111	100
2025-3-13 9:20:30.976	WT901BLE68(E947F43FF2E9)	-0.281	1.007	0.073	4.456	-4.028	-42.603	82.33	8.29	139.41	37.436	-64.680	22.344	0.24396	0.21823	0.62109	0.71201	28.1	13111	100
2025-3-13 9:20:30.985	WT901BLE68(490AABDC0D29)	-1.017	-1.306	-0.152	45.532	32.043	-173.401	-75.39	-20.34	3.58	3.136	46.942	28.812	0.67938	-0.71967	0.05139	0.13327	26.4	13111	100
2025-3-13 9:20:31.99	WT901BLE68(E947F43FF2E9)	-0.089	1.019	0.008	14.404	-14.282	-60.059	83.14	12.90	137.65	37.436	-64.680	22.344	0.37854	0.14288	0.65720	0.63583	28.1	13111	100
2025-3-13 9:20:31.106	WT901BLE68(490AABDC0D29)	0.500	-1.122	-0.410	-5.981	-28.625	51.880	-71.33	-25.81	-4.89	3.136	46.942	28.812	0.67938	-0.71967	0.05139	0.13327	26.4	13111	100
2025-3-13 9:20:31.187	WT901BLE68(E947F43FF2E9)	-1.421	1.456	0.001	26.184	-10.864	-105.286	84.59	20.26	134.46	37.436	-64.680	22.344	0.37854	0.14288	0.65720	0.63583	28.1	13111	100
2025-3-13 9:20:31.195	WT901BLE68(490AABDC0D29)	0.098	-1.112	0.076	3.845	-91.492	104.492	-75.74	-19.84	4.60	3.136	46.942	28.812	0.78067	-0.60013	-0.15994	-0.06870	26.4	13111	100
2025-3-13 9:20:31.308	WT901BLE68(E947F43FF2E9)	1.306	1.327	0.354	60.181	-63.721	-184.998	87.22	34.00	132.30	59.192	-45.178	21.266	0.37854	0.14288	0.65720	0.63583	28.1	13111	100
2025-3-13 9:20:31.315	WT901BLE68(490AABDC0D29)	0.087	-1.049	0.029	-9.888	4.578	66.223	-77.03	-12.28	7.20	-0.882	46.060	20.482	0.78067	-0.60013	-0.15994	-0.06870	26.4	13111	100
2025-3-13 9:20:31.366	WT901BLE68(E947F43FF2E9)	-1.613	0.266	0.077	64.819	28.015	196.289	84.35	30.21	116.87	59.192	-45.178	21.266	0.37854	0.14288	0.65720	0.63583	28.1	13111	100
2025-3-13 9:20:31.404	WT901BLE68(490AABDC0D29)	0.149	-1.013	0.115	-6.226	-2.258	31.494	-78.24	-7.10	9.53	-0.882	46.060	20.482	0.78067	-0.60013	-0.15994	-0.06870	26.4	13111	100
2025-3-13 9:20:31.516	WT901BLE68(E947F43FF2E9)	0.417	1.887	0.577	4.761	25.696	329.224	88.62	-2.90	118.22	59.192	-45.178	21.266	0.25180	0.36188	0.57004	0.69324	28.1	13111	100
2025-3-13 9:20:31.547	WT901BLE68(490AABDC0D29)	0.312	-0.970	0.171	-13.306	-24.231	40.283	-79.60	-4.51	10.91	-0.882	46.060	20.482	0.74591	-0.65405	-0.06848	0.10513	26.4	13111	100
2025-3-13 9:20:31.576	WT901BLE68(E947F43FF2E9)	-0.103	1.337	-0.074	-32.959	-140.625	-31.006	83.69	-10.03	128.36	59.192	-45.178	21.266	0.25180	0.36188	0.57004	0.69324	28.1	13111	100
2025-3-13 9:20:31.585	WT901BLE68(490AABDC0D29)	0.073	-2.034	0.096	-35.706	-19.836	141.296	-82.58	3.33	14.74	-0.882	46.060	20.482	0.74591	-0.65405	-0.06848	0.10513	26.4	13111	100
2025-3-13 9:20:31.698	WT901BLE68(E947F43FF2E9)	-0.138	1.003	0.065	-3.906	-8.179	-33.752	81.95	-3.20	128.72	31.164	-67.522	17.934	0.25180	0.36188	0.57004	0.69324	28.1	13111	100
2025-3-13 9:20:31.705	WT901BLE68(490AABDC0D29)	0.444	-0.597	0.320	-45.105	44.250	132.202	-88.28	21.02	12.38	-0.882	46.060	20.482	0.74591	-0.65405	-0.06848	0.10513	26.4	13111	100
2025-3-13 9:20:31.786	WT901BLE68(E947F43FF2E9)	-0.167	1.003	0.050	6.409	2.563	-20.996	82.10	0.74	130.63	31.164	-67.522	17.934	0.25180	0.36188	0.57004	0.69324	28.1	13111	100
2025-3-13 9:20:31.795	WT901BLE68(490AABDC0D29)	0.016	-0.729	0.127	23.865	-14.771	-212.097	-85.74	9.24	16.42	20.874	33.810	30.086	0.74591	-0.65405	-0.06848	0.10513	26.4	13111	100
2025-3-13 9:20:31.908	WT901BLE68(E947F43FF2E9)	-0.307	0.999	0.030	2.563	16.724	-41.687	82.75	4.59	131.95	31.164	-67.522	17.934	0.35022	0.21109	0.63153	0.65866	28.1	13111	100
2025-3-13 9:20:31.915	WT901BLE68(490AABDC0D29)	-1.206	-1.314	-0.213	35.339	-90.271	-285.767	-82.38	-18.19	18.87	20.874	33.810	30.086	0.74591	-0.65405	-0.06848	0.10513	26.4	13111	100
2025-3-13 9:20:31.996	WT901BLE68(E947F43FF2E9)	-0.157	0.977	-0.006	7.874	8.606	-66.284	83.58	10.46	132.42	31.164	-67.522	17.934	0.35022	0.21109	0.63153	0.65866	28.1	13111	100
2025-3-13 9:20:32.5	WT901BLE68(490AABDC0D29)	-0.273	-1.355	0.056	-4.822	91.675	-83.435	-78.51	-37.11	13.13	20.874	33.810	30.086	0.75381	-0.57007	-0.30365	-0.12021	26.4	13111	100
2025-3-13 9:20:32.117	WT901BLE68(E947F43FF2E9)	-0.917	1.527	0.079	8.057	38.757	-97.534	85.17	18.38	133.10	45.962	-56.056	22.442	0.35022	0.21109	0.63153	0.65866	28.1	13111	100
2025-3-13 9:20:32.126	WT901BLE68(490AABDC0D29)	0.267	-1.576	-1.141	-90.210	69.824	100.525	-78.99	-27.86	11.05	-8.918	39.494	24.598	0.75381	-0.57007	-0.30365	-0.12021	26.4	13111	100
2025-3-13 9:20:32.176	WT901BLE68(E947F43FF2E9)	0.385	1.141	0.244	8.179	84.229	-152.466	88.79	30.87	141.93	45.962	-56.056	22.442	0.35022	0.21109	0.63153	0.65866	28.1	13111	100
2025-3-13 9:20:32.214	WT901BLE68(490AABDC0D29)	0.163	-0.923	0.088	-3.906	13.367	61.035	-79.07	-17.61	12.76	-8.918	39.494	24.598	0.75381	-0.57007	-0.30365	-0.12021	26.4	13111	100
2025-3-13 9:20:32.298	WT901BLE68(E947F43FF2E9)	0.053	0.713	0.130	-36.499	-31.799	-2.502	84.04	37.71	135.51	45.962	-56.056	22.442	0.42844	0.03580	0.66809	0.60721	28.1	13111	100
2025-3-13 9:20:32.348	WT901BLE68(490AABDC0D29)	0.090	-0.968	0.110	-5.737	7.202	42.236	-79.65	-12.44	14.55	-8.918	39.494	24.598	0.75937	-0.63272	-0.14243	0.05133	26.4	13111	100
2025-3-13 9:20:32.386	WT901BLE68(E947F43FF2E9)	-0.049	0.669	-0.263	-42.603	30.090	153.931	82.56	27.17	139.12	45.962	-56.056	22.442	0.42844	0.03580	0.66809	0.60721	28.1	13111	100
2025-3-13 9:20:32.395	WT901BLE68(490AABDC0D29)	0.069	-0.984	0.081	-12.939	-2.502	39.917	-80.84	-8.51	15.18	-8.918	39.494	24.598	0.75937	-0.63272	-0.14243	0.05133	26.4	13111	100
2025-3-13 9:20:32.508	WT901BLE68(E947F43FF2E9)	-0.594	1.178	-0.395	-40.527	90.210	252.136	81.78	4.70	147.32	45.962	-56.056	22.442	0.42844	0.03580	0.66809	0.60721	28.1	13111	100
2025-3-13 9:20:32.515	WT901BLE68(490AABDC0D29)	-0.013	-0.991	0.067	-17.822	-4.211	40.527	-82.74	-4.79	15.81	-8.918	39.494	24.598	0.75937	-0.63272	-0.14243	0.05133	26.4	13111	100
2025-3-13 9:20:32.596	WT901BLE68(E947F43FF2E9)	-0.731	1.699	-0.453	-7.813	50.232	261.108	79.24	-21.21	156.12	13.328	-65.660	22.736	0.42844	0.03580	0.66809	0.60721	28.1	13111	100
2025-3-13 9:20:32.605	WT901BLE68(490AABDC0D29)	0.118	-1.015	0.006	-51.636	-7.202	47.913	-85.55	-0.65	16.46	7.154	37.828	27.930	0.75937	-0.63272	-0.14243	0.05133	26.4	13111	100
2025-3-13 9:20:32.718	WT901BLE68(E947F43FF2E9)	-0.341	1.469	-0.428	1.648	16.785	-155.212	77.21	-18.82	164.43	13.328	-65.660	22.736	0.42844	0.03580	0.66809	0.60721	28.1	13111	100
2025-3-13 9:20:32.725	WT901BLE68(490AABDC0D29)	0.318	-1.508	0.030	-61.340	0.244	90.881	-90.43	5.16	17.28	7.154	37.828	27.930	0.75937	-0.63272	-0.14243	0.05133	26.4	13111	100
2025-3-13 9:20:32.776	WT901BLE68(E947F43FF2E9)	-0.037	0.949	0.083	-28.503	-62.744	-89.417	76.75	-8.31	159.12	13.328	-65.660	22.736	0.11002	0.16254	0.60001	0.77548	28.1	13111	100
2025-3-13 9:20:32.814	WT901BLE68(490AABDC0D29)	0.270	-1.233	0.127	-75.989	74.158	167.175	-97.16	18.02	13.79	7.154	37.828	27.930	0.62314	-0.75525	0.03101	0.20062	26.4	13111	100
2025-3-13 9:20:32.927	WT901BLE68(E947F43FF2E9)	-0.074	0.975	0.146	1.892	-0.793	-40.710	77.17	-2.58	156.70	13.328	-65.660	22.736	0.11002	0.16254	0.60001	0.77548	28.1	13111	100
2025-3-13 9:20:32.943	WT901BLE68(490AABDC0D29)	0.051	-0.635	0.338	28.381	-150.146	-11.902	-101.45	25.28	13.88	7.154	37.828	27.930	0.62314	-0.75525	0.03101	0.20062	26.4	13111	100
2025-3-13 9:20:32.987	WT901BLE68(E947F43FF2E9)	-0.130	0.992	0.089	0.977	1.648	-39.490	77.92	1.44	155.80	22.540	-68.012	20.286	0.11002	0.16254	0.60001	0.77548	28.1	13111	100
2025-3-13 9:20:32.995	WT901BLE68(490AABDC0D29)	0.015	-0.747	-0.033	49.866	-54.321	-163.330	-93.88	15.80	22.65	23.912	31.654	34.888	0.62314	-0.75525	0.03101	0.20062	26.4	13111	100
2025-3-13 9:20:33.108	WT901BLE68(E947F43FF2E9)	-0.218	0.974	0.103	-2.808	1.343	-50.903	78.23	5.91	154.45	22.540	-68.012	20.286	0.11002	0.16254	0.60001	0.77548	28.1	13111	100
2025-3-13 9:20:33.115	WT901BLE68(490AABDC0D29)	-0.125	-1.324	0.048	72.327	-33.508	-235.229	-86.23	-5.84	28.63	23.912	31.654	34.888	0.62314	-0.75525	0.03101	0.20062	26.4	13111	100
2025-3-13 9:20:33.196	WT901BLE68(E947F43FF2E9)	-0.294	1.039	0.063	-1.526	2.930	-56.213	78.34	10.98	152.97	22.540	-68.012	20.286	0.24094	0.07339	0.62891	0.73547	28.1	13111	100
2025-3-13 9:20:33.205	WT901BLE68(490AABDC0D29)	-1.413	-1.507	0.010	86.731	-10.742	-217.407	-77.59	-27.37	24.77	23.912	31.654	34.888	0.77139	-0.55499	-0.31070	0.01767	26.4	13111	100
2025-3-13 9:20:33.318	WT901BLE68(E947F43FF2E9)	0.116	1.067	0.029	6.470	-6.226	-72.876	78.76	16.90	151.12	22.540	-68.012	20.286	0.24094	0.07339	0.62891	0.73547	28.1	13111	100
2025-3-13 9:20:33.325	WT901BLE68(490AABDC0D29)	0.612	-1.163	-0.689	-11.414	16.418	85.510	-69.36	-31.60	13.19	23.912	31.654	34.888	0.77139	-0.55499	-0.31070	0.01767	26.4	13111	100
2025-3-13 9:20:33.407	WT901BLE68(E947F43FF2E9)	-1.056	1.819	-0.120	-1.526	41.931	-135.010	79.17	25.95	149.16	41.846	-59.878	20.972	0.24094	0.07339	0.62891	0.73547	28.1	13111	100
2025-3-13 9:20:33.415	WT901BLE68(490AABDC0D29)	0.041	-0.872	0.548	6.714	-9.033	95.581	-72.36	-22.21	16.42	-17.934	34.006	12.936	0.77139	-0.55499	-0.31070	0.01767	26.4	13111	100
2025-3-13 9:20:33.527	WT901BLE68(E947F43FF2E9)	0.058	0.763	0.283	35.400	32.898	-141.296	82.70	40.30	152.97	41.846	-59.878	20.972	0.24094	0.07339	0.62891	0.73547	28.1	13111	100
2025-3-13 9:20:33.551	WT901BLE68(490AABDC0D29)	0.104	-1.035	0.065	-1.526	-3.723	65.918	-73.89	-12.18	16.44	-17.934	34.006	12.936	0.77139	-0.55499	-0.31070	0.01767	26.4	13111	100
2025-3-13 9:20:33.587	WT901BLE68(E947F43FF2E9)	0.123	0.592	-0.042	27.039	-19.409	63.477	83.92	40.41	151.88	41.846	-59.878	20.972	0.37344	-0.03317	0.66980	0.64087	28.1	13111	100
2025-3-13 9:20:33.624	WT901BLE68(490AABDC0D29)	0.028	-0.994	0.139	-8.606	4.089	36.499	-75.40	-6.95	15.63	-17.934	34.006	12.936	0.78555	-0.60159	-0.12463	0.07315	26.4	13111	100
2025-3-13 9:20:33.708	WT901BLE68(E947F43FF2E9)	-0.257	0.913	0.053	4.089	12.573	232.117	82.97	22.92	148.32	41.846	-59.878	20.972	0.37344	-0.03317	0.66980	0.64087	28.1	13111	100
2025-3-13 9:20:33.753	WT901BLE68(490AABDC0D29)	-0.004	-0.979	0.118	-15.381	0.061	34.851	-77.17	-3.36	14.91	-17.934	34.006	12.936	0.78555	-0.60159	-0.12463	0.07315	26.4	13111	100
2025-3-13 9:20:33.797	WT901BLE68(E947F43FF2E9)	-1.748	1.619	-0.248	-32.288	104.004	275.696	84.02	-2.91	158.78	13.034	-58.114	23.912	0.37344	-0.03317	0.66980	0.64087	28.1	13111	100
2025-3-13 9:20:33.805	WT901BLE68(490AABDC0D29)	-0.019	-0.979	0.110	-20.081	-6.409	38.330	-78.85	0.10	14.55	-2.352	35.378	16.072	0.78555	-0.60159	-0.12463	0.07315	26.4	13111	100
2025-3-13 9:20:33.921	WT901BLE68(E947F43FF2E9)	1.509	1.413	-0.179	-8.240	-70.618	136.963	80.15	-25.09	167.34	13.034	-58.114	23.912	0.37344	-0.03317	0.66980	0.64087	28.1	13111	100
2025-3-13 9:20:33.925	WT901BLE68(490AABDC0D29)	0.266	-1.039	0.055	-29.968	-9.583	49.927	-81.74	4.00	15.05	-2.352	35.378	16.072	0.78555	-0.60159	-0.12463	0.07315	26.4	13111	100
2025-3-13 9:20:34.6	WT901BLE68(E947F43FF2E9)	0.331	1.358	-0.096	-20.996	-14.709	-13.367	78.54	-18.94	167.40	13.034	-58.114	23.912	-0.01425	0.18933	0.60950	0.76965	28.1	13111	100
2025-3-13 9:20:34.15	WT901BLE68(490AABDC0D29)	0.020	-1.772	0.033	-38.757	32.959	133.728	-85.75	11.68	14.95	-2.352	35.378	16.072	0.71173	-0.68231	-0.00967	0.16644	26.4	13111	100
2025-3-13 9:20:34.128	WT901BLE68(E947F43FF2E9)	-0.034	1.188	-0.060	-1.282	-38.086	-50.415	79.17	-8.49	164.55	13.034	-58.114	23.912	-0.01425	0.18933	0.60950	0.76965	28.1	13111	100
2025-3-13 9:20:34.158	WT901BLE68(490AABDC0D29)	0.306	-0.817	0.213	-72.510	112.122	135.620	-92.68	26.43	9.14	-2.352	35.378	16.072	0.71173	-0.68231	-0.00967	0.16644	26.4	13111	100
2025-3-13 9:20:34.186	WT901BLE68(E947F43FF2E9)	-0.011	0.979	0.075	-3.601	-23.010	-35.706	79.45	-3.77	161.76	13.034	-58.114	23.912	-0.01425	0.18933	0.60950	0.76965	28.1	13111	100
2025-3-13 9:20:34.224	WT901BLE68(490AABDC0D29)	0.065	-0.468	0.293	29.480	-72.632	-81.787	-95.28	28.75	9.53	19.992	26.558	29.988	0.71173	-0.68231	-0.00967	0.16644	26.4	13111	100
2025-3-13 9:20:34.306	WT901BLE68(E947F43FF2E9)	-0.078	1.001	0.059	-2.258	-9.888	-32.776	79.71	-0.66	160.08	13.034	-58.114	23.912	-0.01425	0.18933	0.60950	0.76965	28.1	13111	100
2025-3-13 9:20:34.373	WT901BLE68(490AABDC0D29)	0.061	-0.927	-0.021	72.876	-15.808	-225.708	-88.41	11.80	14.23	19.992	26.558	29.988	0.71173	-0.68231	-0.00967	0.16644	26.4	13111	100
2025-3-13 9:20:34.397	WT901BLE68(E947F43FF2E9)	-0.157	1.010	0.051	-1.831	-1.099	-50.049	79.86	3.36	158.46	13.034	-58.114	23.912	-0.01425	0.18933	0.60950	0.76965	28.5	13111	100
2025-3-13 9:20:34.405	WT901BLE68(490AABDC0D29)	-1.464	-1.521	-0.184	89.294	46.570	-267.273	-79.59	-13.50	10.29	19.992	26.558	29.988	0.77521	-0.60730	-0.16772	-0.04498	26.4	13111	100
2025-3-13 9:20:34.518	WT901BLE68(E947F43FF2E9)	-0.154	1.038	0.083	5.432	0.183	-62.622	80.33	8.71	157.35	13.034	-58.114	23.912	-0.01425	0.18933	0.60950	0.76965	28.5	13111	100
2025-3-13 9:20:34.525	WT901BLE68(490AABDC0D29)	-0.817	-1.336	-0.352	10.010	36.621	-63.538	-70.70	-31.25	-0.33	19.992	26.558	29.988	0.77521	-0.60730	-0.16772	-0.04498	26.4	13111	100
2025-3-13 9:20:34.607	WT901BLE68(E947F43FF2E9)	0.508	1.537	0.028	12.268	6.042	-102.661	81.37	16.55	155.98	13.034	-58.114	23.912	-0.01425	0.18933	0.60950	0.76965	28.5	13111	100
2025-3-13 9:20:34.615	WT901BLE68(490AABDC0D29)	0.222	-1.719	-0.120	-49.805	-20.935	139.771	-72.56	-22.27	-1.46	-10.192	26.558	16.758	0.77521	-0.60730	-0.16772	-0.04498	26.4	13111	100
2025-3-13 9:20:34.726	WT901BLE68(E947F43FF2E9)	0.641	1.274	0.100	-4.211	117.432	-172.485	83.05	30.87	157.87	31.066	-50.078	22.736	-0.01425	0.18933	0.60950	0.76965	28.5	13111	100
2025-3-13 9:20:34.735	WT901BLE68(490AABDC0D29)	0.196	-1.023	0.039	-12.085	38.696	41.687	-74.95	-13.23	0.96	-10.192	26.558	16.758	0.77521	-0.60730	-0.16772	-0.04498	26.4	13111	100
2025-3-13 9:20:34.816	WT901BLE68(E947F43FF2E9)	0.266	0.390	-0.079	11.963	-9.399	41.748	87.46	38.21	161.97	31.066	-50.078	22.736	-0.01425	0.18933	0.60950	0.76965	28.5	13111	100
2025-3-13 9:20:34.826	WT901BLE68(490AABDC0D29)	0.109	-0.954	0.135	-7.996	-9.460	37.659	-76.64	-8.10	1.78	-10.192	26.558	16.758	0.78235	-0.61887	-0.06284	-0.02933	26.4	13111	100
2025-3-13 9:20:34.936	WT901BLE68(E947F43FF2E9)	-0.078	0.843	-0.021	-26.917	19.958	211.182	83.70	21.36	158.15	31.066	-50.078	22.736	0.20016	0.03540	0.66342	0.72003	28.5	13111	100
2025-3-13 9:20:34.962	WT901BLE68(490AABDC0D29)	0.049	-0.966	0.116	-15.015	-11.108	37.537	-78.61	-4.65	2.55	-10.192	26.558	16.758	0.78235	-0.61887	-0.06284	-0.02933	26.4	13111	100
2025-3-13 9:20:34.998	WT901BLE68(E947F43FF2E9)	-1.898	1.600	-0.257	-29.968	49.683	301.819	81.52	-6.21	164.12	31.066	-50.078	22.736	0.20016	0.03540	0.66342	0.72003	28.5	13111	100
2025-3-13 9:20:35.34	WT901BLE68(490AABDC0D29)	0.042	-0.998	0.074	-30.457	-10.376	41.382	-81.43	-1.01	4.21	-10.192	26.558	16.758	0.78235	-0.61887	-0.06284	-0.02933	26.4	13111	100
2025-3-13 9:20:35.116	WT901BLE68(E947F43FF2E9)	0.125	0.899	0.185	7.324	-36.865	-64.514	80.76	-25.56	165.95	5.782	-55.468	21.756	0.20016	0.03540	0.66342	0.72003	28.5	13111	100
2025-3-13 9:20:35.159	WT901BLE68(490AABDC0D29)	0.286	-1.025	-0.006	-49.072	-8.118	57.068	-85.61	3.15	5.61	-10.192	26.558	16.758	0.78235	-0.61887	-0.06284	-0.02933	26.4	13111	100
2025-3-13 9:20:35.208	WT901BLE68(E947F43FF2E9)	0.062	0.939	0.053	1.404	-35.889	-113.464	79.55	-14.13	163.99	5.782	-55.468	21.756	0.20016	0.03540	0.66342	0.72003	28.5	13111	100
2025-3-13 9:20:35.215	WT901BLE68(490AABDC0D29)	-0.286	-1.722	0.015	-59.387	48.828	142.761	-91.53	12.89	4.88	-10.192	26.558	16.758	0.78235	-0.61887	-0.06284	-0.02933	27.3	13111	100
2025-3-13 9:20:35.326	WT901BLE68(E947F43FF2E9)	0.041	1.072	0.108	-5.493	-20.935	-33.997	79.91	-6.93	157.55	5.782	-55.468	21.756	0.11859	0.16919	0.62048	0.75644	28.5	13111	100
2025-3-13 9:20:35.335	WT901BLE68(490AABDC0D29)	0.442	-0.875	0.109	-69.458	40.955	107.605	-100.63	25.75	-1.19	-10.192	26.558	16.758	0.78235	-0.61887	-0.06284	-0.02933	27.3	13111	100
2025-3-13 9:20:35.418	WT901BLE68(E947F43FF2E9)	-0.045	0.982	0.072	1.526	1.831	-30.518	80.74	-3.65	155.34	5.782	-55.468	21.756	0.11859	0.16919	0.62048	0.75644	28.5	13111	100
2025-3-13 9:20:35.425	WT901BLE68(490AABDC0D29)	0.112	-0.559	0.117	44.678	43.640	-96.985	-92.98	23.00	7.02	-10.192	26.558	16.758	0.78235	-0.61887	-0.06284	-0.02933	27.3	13111	100
2025-3-13 9:20:35.536	WT901BLE68(E947F43FF2E9)	-0.170	1.002	0.050	-0.610	-7.690	-48.950	81.38	0.01	153.53	21.756	-59.290	18.816	0.11859	0.16919	0.62048	0.75644	28.5	13111	100
2025-3-13 9:20:35.556	WT901BLE68(490AABDC0D29)	-0.219	-0.989	-0.114	103.210	-12.329	-219.116	-84.91	3.89	6.42	7.350	30.086	29.008	0.78235	-0.61887	-0.06284	-0.02933	27.3	13111	100
2025-3-13 9:20:35.595	WT901BLE68(E947F43FF2E9)	-0.262	1.015	0.041	3.174	-6.104	-54.688	81.44	4.87	151.08	21.756	-59.290	18.816	0.11859	0.16919	0.62048	0.75644	28.5	13111	100
2025-3-13 9:20:35.636	WT901BLE68(490AABDC0D29)	-0.774	-1.674	-0.517	72.205	54.932	-236.206	-74.64	-19.44	-1.24	7.350	30.086	29.008	0.78235	-0.61887	-0.06284	-0.02933	27.3	13111	100
2025-3-13 9:20:35.717	WT901BLE68(E947F43FF2E9)	0.102	1.165	-0.076	13.855	-10.620	-82.397	82.45	11.02	148.77	21.756	-59.290	18.816	0.28983	0.09381	0.65665	0.68985	28.5	13111	100
2025-3-13 9:20:35.766	WT901BLE68(490AABDC0D29)	-0.075	-1.235	-1.005	-26.489	-26.672	119.385	-69.80	-23.27	-11.62	7.350	30.086	29.008	0.79550	-0.57321	-0.11752	-0.15704	27.3	13111	100
2025-3-13 9:20:35.808	WT901BLE68(E947F43FF2E9)	-0.783	1.770	-0.146	3.052	12.878	-173.462	83.24	22.39	145.35	21.756	-59.290	18.816	0.28983	0.09381	0.65665	0.68985	28.5	13111	100
2025-3-13 9:20:35.815	WT901BLE68(490AABDC0D29)	0.104	-1.211	0.299	0.427	-64.392	103.271	-73.19	-17.13	-3.08	7.350	30.086	29.008	0.79550	-0.57321	-0.11752	-0.15704	27.3	13111	100
2025-3-13 9:20:35.945	WT901BLE68(E947F43FF2E9)	0.334	0.559	0.191	28.076	3.601	-100.098	88.12	38.14	149.29	41.160	-47.726	23.814	0.28983	0.09381	0.65665	0.68985	28.5	13111	100
2025-3-13 9:20:35.945	WT901BLE68(490AABDC0D29)	0.085	-0.972	0.129	-13.062	2.441	63.904	-75.28	-10.49	-0.95	-0.294	27.244	20.972	0.79550	-0.57321	-0.11752	-0.15704	27.3	13111	100
2025-3-13 9:20:36.18	WT901BLE68(E947F43FF2E9)	-0.106	0.636	0.172	3.479	-46.753	132.996	87.92	32.06	144.92	41.160	-47.726	23.814	0.28983	0.09381	0.65665	0.68985	28.5	13111	100
2025-3-13 9:20:36.44	WT901BLE68(490AABDC0D29)	0.068	-0.977	0.143	-15.991	2.747	37.964	-77.22	-6.08	1.69	-0.294	27.244	20.972	0.79550	-0.57321	-0.11752	-0.15704	27.3	13111	100
2025-3-13 9:20:36.146	WT901BLE68(E947F43FF2E9)	-0.428	1.182	-0.129	-31.494	47.302	245.850	86.47	10.90	145.65	41.160	-47.726	23.814	0.23358	0.16660	0.66037	0.69391	28.5	13111	100
2025-3-13 9:20:36.146	WT901BLE68(490AABDC0D29)	-0.010	-0.977	0.118	-20.325	-9.888	40.161	-79.41	-2.50	3.34	-0.294	27.244	20.972	0.76636	-0.64127	-0.03314	0.01538	27.3	13111	100
2025-3-13 9:20:36.252	WT901BLE68(E947F43FF2E9)	-1.309	1.658	-0.303	-32.288	37.415	261.292	83.14	-14.83	151.35	41.160	-47.726	23.814	0.23358	0.16660	0.66037	0.69391	28.5	13111	100
2025-3-13 9:20:36.252	WT901BLE68(490AABDC0D29)	0.051	-1.000	0.076	-30.579	-10.864	46.692	-82.10	1.31	5.63	-0.294	27.244	20.972	0.76636	-0.64127	-0.03314	0.01538	27.3	13111	100
2025-3-13 9:20:36.346	WT901BLE68(E947F43FF2E9)	-0.232	0.920	-0.009	-4.700	-45.532	-72.388	81.90	-24.18	152.38	11.074	-60.172	24.206	0.23358	0.16660	0.66037	0.69391	28.5	13111	100
2025-3-13 9:20:36.353	WT901BLE68(490AABDC0D29)	0.276	-1.096	0.094	-44.006	-0.061	76.538	-85.74	6.72	7.61	10.192	25.382	26.068	0.76636	-0.64127	-0.03314	0.01538	27.3	13111	100
2025-3-13 9:20:36.408	WT901BLE68(E947F43FF2E9)	-0.225	0.899	0.720	-27.832	-92.102	-125.000	80.65	-12.63	150.81	11.074	-60.172	24.206	0.23358	0.16660	0.66037	0.69391	28.5	13111	100
2025-3-13 9:20:36.415	WT901BLE68(490AABDC0D29)	-0.109	-1.567	-0.097	-60.974	74.951	168.640	-91.45	18.56	4.99	10.192	25.382	26.068	0.76636	-0.64127	-0.03314	0.01538	27.3	13111	100
2025-3-13 9:20:36.547	WT901BLE68(E947F43FF2E9)	0.005	0.995	0.083	-13.428	1.648	-43.457	80.20	-4.50	146.48	11.074	-60.172	24.206	0.19992	0.20966	0.60876	0.73849	28.5	13111	100
2025-3-13 9:20:36.563	WT901BLE68(490AABDC0D29)	0.179	-0.749	0.111	-14.099	-9.644	38.269	-100.60	28.14	-0.58	10.192	25.382	26.068	0.63840	-0.73297	0.13190	0.19412	27.3	13111	100
2025-3-13 9:20:36.618	WT901BLE68(E947F43FF2E9)	-0.038	0.980	0.097	4.639	5.676	-23.254	80.82	-1.07	146.21	11.074	-60.172	24.206	0.19992	0.20966	0.60876	0.73849	28.5	13111	100
2025-3-13 9:20:36.624	WT901BLE68(490AABDC0D29)	0.115	-0.669	-0.155	65.430	33.875	-146.729	-92.76	18.74	4.74	10.192	25.382	26.068	0.63840	-0.73297	0.13190	0.19412	27.3	13111	100
2025-3-13 9:20:36.735	WT901BLE68(E947F43FF2E9)	-0.188	1.022	0.041	6.836	-1.831	-41.260	81.75	2.25	145.43	26.558	-61.152	21.756	0.19992	0.20966	0.60876	0.73849	28.5	13111	100
2025-3-13 9:20:36.745	WT901BLE68(490AABDC0D29)	-0.183	-1.247	-0.252	78.125	50.720	-232.605	-84.65	-2.71	3.55	6.370	32.830	28.028	0.63840	-0.73297	0.13190	0.19412	27.3	13111	100
2025-3-13 9:20:36.846	WT901BLE68(E947F43FF2E9)	-0.246	1.000	0.037	8.179	3.540	-50.781	82.62	7.07	144.42	26.558	-61.152	21.756	0.19992	0.20966	0.60876	0.73849	28.5	13111	100
2025-3-13 9:20:36.846	WT901BLE68(490AABDC0D29)	-0.997	-1.601	-0.310	79.041	6.226	-215.759	-76.05	-24.20	-2.74	6.370	32.830	28.028	0.63840	-0.73297	0.13190	0.19412	27.3	13111	100
2025-3-13 9:20:36.948	WT901BLE68(E947F43FF2E9)	-0.042	1.089	-0.067	18.494	-9.888	-64.331	84.27	12.57	143.21	26.558	-61.152	21.756	0.31821	0.12695	0.66422	0.66434	28.5	13111	100
2025-3-13 9:20:36.955	WT901BLE68(490AABDC0D29)	-0.051	-1.157	-0.282	-27.893	40.710	103.027	-73.12	-27.32	-7.03	6.370	32.830	28.028	0.77609	-0.59039	-0.14056	-0.17111	27.3	13111	100
2025-3-13 9:20:37.7	WT901BLE68(E947F43FF2E9)	-0.886	1.461	0.003	26.123	3.540	-103.271	86.78	20.76	140.58	26.558	-61.152	21.756	0.31821	0.12695	0.66422	0.66434	28.5	13111	100
2025-3-13 9:20:37.51	WT901BLE68(490AABDC0D29)	0.159	-1.196	0.281	-1.587	-14.954	88.135	-76.28	-18.44	-1.52	6.370	32.830	28.028	0.77609	-0.59039	-0.14056	-0.17111	27.3	13111	100
2025-3-13 9:20:37.126	WT901BLE68(E947F43FF2E9)	0.330	0.808	0.451	32.715	70.679	-145.508	91.66	32.50	146.35	41.650	-45.962	28.714	0.31821	0.12695	0.66422	0.66434	28.5	13111	100
2025-3-13 9:20:37.167	WT901BLE68(490AABDC0D29)	0.087	-1.053	0.053	8.606	1.770	53.406	-76.65	-11.83	1.57	1.960	32.242	20.188	0.77609	-0.59039	-0.14056	-0.17111	27.3	13111	100
2025-3-13 9:20:37.218	WT901BLE68(E947F43FF2E9)	-0.019	0.594	0.166	-9.766	-27.954	71.899	89.63	32.26	142.75	41.650	-45.962	28.714	0.31821	0.12695	0.66422	0.66434	28.5	13111	100
2025-3-13 9:20:37.225	WT901BLE68(490AABDC0D29)	0.063	-1.001	0.115	-4.822	-2.991	39.246	-77.29	-7.22	4.17	1.960	32.242	20.188	0.77609	-0.59039	-0.14056	-0.17111	27.3	13111	100
2025-3-13 9:20:37.345	WT901BLE68(E947F43FF2E9)	-0.129	1.077	-0.094	-36.682	9.888	200.500	86.78	16.78	142.92	41.650	-45.962	28.714	0.29971	0.13852	0.66937	0.66544	28.5	13111	100
2025-3-13 9:20:37.345	WT901BLE68(490AABDC0D29)	0.030	-0.979	0.133	-11.414	-13.367	40.955	-78.48	-3.79	6.50	1.960	32.242	20.188	0.76654	-0.63748	-0.05768	0.05060	27.3	13111	100
2025-3-13 9:20:37.429	WT901BLE68(E947F43FF2E9)	-1.674	1.497	-0.168	-51.025	40.344	238.831	83.01	-5.75	146.34	41.650	-45.962	28.714	0.29971	0.13852	0.66937	0.66544	28.5	13111	100
2025-3-13 9:20:37.456	WT901BLE68(490AABDC0D29)	-0.050	-0.997	0.123	-18.127	-12.939	41.321	-80.14	-0.31	9.51	1.960	32.242	20.188	0.76654	-0.63748	-0.05768	0.05060	27.3	13111	100
2025-3-13 9:20:37.552	WT901BLE68(E947F43FF2E9)	-0.170	0.988	-0.263	-19.714	-1.221	31.433	78.55	-21.59	154.13	10.094	-60.466	24.892	0.29971	0.13852	0.66937	0.66544	28.5	13111	100
2025-3-13 9:20:37.555	WT901BLE68(490AABDC0D29)	0.172	-1.026	0.031	-28.015	-17.334	62.012	-82.50	4.03	12.39	13.818	28.714	22.442	0.76654	-0.63748	-0.05768	0.05060	27.3	13111	100
2025-3-13 9:20:37.649	WT901BLE68(E947F43FF2E9)	-0.510	1.195	0.104	-22.644	-114.807	-110.046	78.57	-14.91	150.63	10.094	-60.466	24.892	0.29971	0.13852	0.66937	0.66544	28.5	13111	100
2025-3-13 9:20:37.649	WT901BLE68(490AABDC0D29)	0.199	-1.596	-0.007	-29.785	21.851	143.799	-85.47	12.96	15.06	13.818	28.714	22.442	0.76654	-0.63748	-0.05768	0.05060	27.3	13111	100
2025-3-13 9:20:37.756	WT901BLE68(E947F43FF2E9)	0.060	1.164	-0.039	-14.465	-43.091	-60.242	79.43	-7.32	142.44	10.094	-60.466	24.892	0.22714	0.24567	0.58997	0.73477	28.5	13111	100
2025-3-13 9:20:37.768	WT901BLE68(490AABDC0D29)	0.301	-0.815	0.261	-79.285	97.046	131.104	-91.88	27.78	11.32	13.818	28.714	22.442	0.62891	-0.72479	0.11319	0.25739	27.3	13111	100
2025-3-13 9:20:37.816	WT901BLE68(E947F43FF2E9)	-0.038	0.950	0.105	-3.479	-2.014	-32.410	79.48	-2.66	140.20	10.094	-60.466	24.892	0.22714	0.24567	0.58997	0.73477	28.5	13111	100
2025-3-13 9:20:37.827	WT901BLE68(490AABDC0D29)	0.032	-0.500	0.256	6.531	-48.401	-92.834	-93.08	28.13	14.13	13.818	28.714	22.442	0.62891	-0.72479	0.11319	0.25739	27.3	13111	100
2025-3-13 9:20:37.950	WT901BLE68(E947F43FF2E9)	-0.112	0.992	0.111	0.061	0.549	-36.804	79.88	0.75	139.54	28.126	-60.760	21.756	0.22714	0.24567	0.58997	0.73477	28.5	13111	100
2025-3-13 9:20:37.976	WT901BLE68(490AABDC0D29)	-0.139	-1.044	-0.042	49.988	-16.357	-250.305	-88.18	7.82	18.17	10.388	33.516	25.872	0.62891	-0.72479	0.11319	0.25739	27.3	13111	100
2025-3-13 9:20:38.28	WT901BLE68(E947F43FF2E9)	-0.201	1.004	0.110	1.465	1.038	-49.500	80.26	5.00	138.65	28.126	-60.760	21.756	0.22714	0.24567	0.58997	0.73477	28.5	13111	100
2025-3-13 9:20:38.58	WT901BLE68(490AABDC0D29)	-1.513	-1.750	-0.074	75.989	-6.653	-281.189	-81.95	-19.34	17.12	10.388	33.516	25.872	0.62891	-0.72479	0.11319	0.25739	27.3	13111	100
2025-3-13 9:20:38.150	WT901BLE68(E947F43FF2E9)	0.064	1.125	-0.008	0.854	10.315	-73.059	80.65	10.70	138.39	28.126	-60.760	21.756	0.33441	0.15396	0.63031	0.68341	28.5	13111	100
2025-3-13 9:20:38.155	WT901BLE68(490AABDC0D29)	0.080	-1.191	-0.323	-18.005	19.653	66.528	-77.94	-31.06	14.30	10.388	33.516	25.872	0.76746	-0.59683	-0.23105	-0.03592	27.3	13111	100
2025-3-13 9:20:38.256	WT901BLE68(E947F43FF2E9)	-1.040	1.548	0.130	-8.911	41.260	-133.789	80.86	20.14	137.47	28.126	-60.760	21.756	0.33441	0.15396	0.63031	0.68341	28.5	13111	100
2025-3-13 9:20:38.256	WT901BLE68(490AABDC0D29)	0.190	-1.063	0.696	34.485	-46.082	94.055	-79.01	-20.47	14.43	10.388	33.516	25.872	0.76746	-0.59683	-0.23105	-0.03592	27.3	13111	100
2025-3-13 9:20:38.358	WT901BLE68(E947F43FF2E9)	0.132	0.625	0.292	15.564	114.258	-157.104	84.87	34.76	146.62	44.100	-47.922	27.244	0.33441	0.15396	0.63031	0.68341	28.5	13111	100
2025-3-13 9:20:38.365	WT901BLE68(490AABDC0D29)	0.116	-1.067	0.019	3.784	1.343	55.969	-79.35	-12.43	15.89	-2.548	35.672	18.424	0.76746	-0.59683	-0.23105	-0.03592	27.3	13111	100
2025-3-13 9:20:38.417	WT901BLE68(E947F43FF2E9)	0.144	0.585	-0.010	-35.522	-7.568	99.243	88.15	34.27	153.08	44.100	-47.922	27.244	0.33441	0.15396	0.63031	0.68341	28.5	13111	100
2025-3-13 9:20:38.455	WT901BLE68(490AABDC0D29)	0.051	-0.950	0.104	-2.197	0.916	48.523	-79.84	-6.60	16.72	-2.548	35.672	18.424	0.76746	-0.59683	-0.23105	-0.03592	27.3	13111	100
2025-3-13 9:20:38.548	WT901BLE68(E947F43FF2E9)	-0.138	1.124	-0.261	-42.480	47.791	221.130	84.27	15.08	153.78	44.100	-47.922	27.244	0.18225	0.10080	0.65897	0.72269	28.5	13111	100
2025-3-13 9:20:38.573	WT901BLE68(490AABDC0D29)	-0.009	-0.984	0.068	-12.451	-4.333	36.682	-81.11	-2.50	17.34	-2.548	35.672	18.424	0.74249	-0.65143	-0.10492	0.11505	27.3	13111	100
2025-3-13 9:20:38.626	WT901BLE68(E947F43FF2E9)	-1.448	1.638	-0.383	-15.869	38.635	251.892	82.75	-9.50	160.59	44.100	-47.922	27.244	0.18225	0.10080	0.65897	0.72269	28.5	13111	100
2025-3-13 9:20:38.658	WT901BLE68(490AABDC0D29)	-0.094	-0.992	0.038	-26.672	-9.033	37.598	-83.55	0.87	18.29	-2.548	35.672	18.424	0.74249	-0.65143	-0.10492	0.11505	27.3	13111	100
2025-3-13 9:20:38.758	WT901BLE68(E947F43FF2E9)	0.104	0.980	-0.077	-2.014	57.251	19.104	81.02	-23.54	167.28	2.646	-59.388	24.500	0.18225	0.10080	0.65897	0.72269	28.5	13111	100
2025-3-13 9:20:38.759	WT901BLE68(490AABDC0D29)	0.402	-1.076	-0.125	-41.260	-15.259	55.237	-87.10	5.26	19.58	11.466	33.320	24.206	0.74249	-0.65143	-0.10492	0.11505	27.3	13111	100
2025-3-13 9:20:38.854	WT901BLE68(E947F43FF2E9)	0.088	0.967	0.095	-30.640	-83.618	-106.323	80.08	-12.44	168.52	2.646	-59.388	24.500	0.18225	0.10080	0.65897	0.72269	28.5	13111	100
2025-3-13 9:20:38.855	WT901BLE68(490AABDC0D29)	-0.414	-1.585	0.166	-52.795	31.799	159.729	-91.88	15.07	20.29	11.466	33.320	24.206	0.74249	-0.65143	-0.10492	0.11505	27.3	13111	100
2025-3-13 9:20:38.958	WT901BLE68(E947F43FF2E9)	0.075	0.978	0.095	-2.075	33.325	-44.800	78.74	-5.45	166.67	2.646	-59.388	24.500	0.06577	0.10065	0.62598	0.77045	28.5	13111	100
2025-3-13 9:20:38.965	WT901BLE68(490AABDC0D29)	0.255	-0.977	0.047	-63.843	-43.762	66.772	-101.54	26.50	15.07	11.466	33.320	24.206	0.60175	-0.73132	-0.02008	0.32025	27.3	13111	100
2025-3-13 9:20:39.51	WT901BLE68(E947F43FF2E9)	0.040	0.958	0.157	-0.427	-10.498	-21.057	78.71	-1.94	165.47	2.646	-59.388	24.500	0.06577	0.10065	0.62598	0.77045	28.5	13111	100
2025-3-13 9:20:39.55	WT901BLE68(490AABDC0D29)	0.010	-0.551	0.063	25.635	-3.906	-122.803	-93.50	24.13	28.42	11.466	33.320	24.206	0.60175	-0.73132	-0.02008	0.32025	27.3	13111	100
2025-3-13 9:20:39.165	WT901BLE68(E947F43FF2E9)	-0.093	0.997	0.104	4.517	-9.094	-39.795	79.22	0.84	163.48	17.346	-62.426	21.756	0.06577	0.10065	0.62598	0.77045	28.5	13111	100
2025-3-13 9:20:39.175	WT901BLE68(490AABDC0D29)	-0.199	-1.042	0.000	67.932	-35.034	-249.878	-86.65	3.46	32.70	3.724	34.888	22.246	0.60175	-0.73132	-0.02008	0.32025	27.3	13111	100
2025-3-13 9:20:39.226	WT901BLE68(E947F43FF2E9)	-0.145	1.015	0.088	-0.183	-8.057	-47.607	79.57	5.13	160.82	17.346	-62.426	21.756	0.06577	0.10065	0.62598	0.77045	28.5	13111	100
2025-3-13 9:20:39.234	WT901BLE68(490AABDC0D29)	-1.692	-1.497	-0.349	59.998	-13.367	-244.934	-79.04	-21.13	29.32	3.724	34.888	22.246	0.60175	-0.73132	-0.02008	0.32025	27.3	13111	100
2025-3-13 9:20:39.355	WT901BLE68(E947F43FF2E9)	0.038	1.165	0.009	-1.465	15.869	-70.435	79.70	10.53	159.69	17.346	-62.426	21.756	0.21799	0.02277	0.64252	0.73419	28.5	13111	100
2025-3-13 9:20:39.384	WT901BLE68(490AABDC0D29)	0.513	-1.281	-0.293	-4.700	9.521	56.702	-74.39	-32.28	23.45	3.724	34.888	22.246	0.78406	-0.53558	-0.31287	0.02069	27.3	13111	100
2025-3-13 9:20:39.462	WT901BLE68(E947F43FF2E9)	-0.539	1.488	0.113	-6.775	33.630	-126.038	79.63	20.30	157.99	17.346	-62.426	21.756	0.21799	0.02277	0.64252	0.73419	28.5	13111	100
2025-3-13 9:20:39.462	WT901BLE68(490AABDC0D29)	0.203	-0.824	0.303	12.573	-18.982	89.539	-76.25	-24.48	26.10	3.724	34.888	22.246	0.78406	-0.53558	-0.31287	0.02069	27.3	13111	100
2025-3-13 9:20:39.557	WT901BLE68(E947F43FF2E9)	-0.142	0.675	0.160	3.296	138.550	-157.532	82.60	35.07	164.48	37.828	-54.782	25.186	0.21799	0.02277	0.64252	0.73419	28.5	13111	100
2025-3-13 9:20:39.565	WT901BLE68(490AABDC0D29)	0.183	-1.036	0.065	-3.052	13.977	47.607	-76.93	-17.83	26.56	-10.192	34.888	15.484	0.78406	-0.53558	-0.31287	0.02069	27.3	13111	100
2025-3-13 9:20:39.658	WT901BLE68(E947F43FF2E9)	-0.106	0.570	-0.055	9.338	18.433	55.603	89.74	40.03	172.67	37.828	-54.782	25.186	0.21799	0.02277	0.64252	0.73419	28.5	13111	100
2025-3-13 9:20:39.658	WT901BLE68(490AABDC0D29)	0.102	-0.928	0.152	0.244	-4.272	42.542	-77.66	-12.74	26.14	-10.192	34.888	15.484	0.78406	-0.53558	-0.31287	0.02069	27.3	13111	100
2025-3-13 9:20:39.768	WT901BLE68(E947F43FF2E9)	-0.104	0.874	-0.084	-40.771	11.475	177.002	86.90	26.85	169.68	37.828	-54.782	25.186	0.18695	-0.07428	0.67905	0.70590	28.5	13111	100
2025-3-13 9:20:39.775	WT901BLE68(490AABDC0D29)	0.067	-0.978	0.102	-7.996	-8.728	33.203	-78.75	-9.17	25.20	-10.192	34.888	15.484	0.75363	-0.61807	-0.18173	0.12994	27.3	13111	100
2025-3-13 9:20:39.825	WT901BLE68(E947F43FF2E9)	-0.569	1.136	-0.234	-41.504	17.212	247.192	83.81	5.77	171.74	37.828	-54.782	25.186	0.18695	-0.07428	0.67905	0.70590	28.5	13111	100
2025-3-13 9:20:39.865	WT901BLE68(490AABDC0D29)	0.034	-0.990	0.073	-14.282	-13.306	32.227	-80.44	-6.05	25.07	-10.192	34.888	15.484	0.75363	-0.61807	-0.18173	0.12994	27.3	13111	100
2025-3-13 9:20:39.963	WT901BLE68(E947F43FF2E9)	0.136	1.542	-0.071	-5.310	29.602	195.007	82.10	-16.74	177.02	-0.196	-59.388	23.520	0.18695	-0.07428	0.67905	0.70590	28.5	13111	100
2025-3-13 9:20:39.985	WT901BLE68(490AABDC0D29)	-0.017	-1.002	0.063	-24.170	-10.193	43.579	-82.66	-2.53	25.40	-0.098	35.574	19.012	0.75363	-0.61807	-0.18173	0.12994	27.3	13111	100
2025-3-13 9:20:40.35	WT901BLE68(E947F43FF2E9)	-0.285	1.167	-0.917	2.258	3.906	-89.966	79.83	-15.68	-174.19	-0.196	-59.388	23.520	0.18695	-0.07428	0.67905	0.70590	28.5	13111	100
2025-3-13 9:20:40.59	WT901BLE68(490AABDC0D29)	0.275	-1.123	0.004	-36.987	-1.953	63.049	-85.93	2.68	25.50	-0.098	35.574	19.012	0.75363	-0.61807	-0.18173	0.12994	27.3	13111	100
2025-3-13 9:20:40.160	WT901BLE68(E947F43FF2E9)	-0.081	0.939	0.391	-32.654	-79.773	-82.336	79.98	-8.15	179.54	-0.196	-59.388	23.520	-0.01663	0.04352	0.63910	0.76764	28.5	13111	100
2025-3-13 9:20:40.165	WT901BLE68(490AABDC0D29)	-0.214	-1.528	0.090	-43.579	19.348	129.883	-90.31	11.88	24.53	-0.098	35.574	19.012	0.62442	-0.73862	-0.00653	0.25381	27.3	13111	100
2025-3-13 9:20:40.266	WT901BLE68(E947F43FF2E9)	-0.058	1.020	0.030	-5.432	-24.292	-45.898	79.69	-2.94	176.25	-0.196	-59.388	23.520	-0.01663	0.04352	0.63910	0.76764	28.5	13111	100
2025-3-13 9:20:40.266	WT901BLE68(490AABDC0D29)	0.324	-0.937	0.292	-75.562	59.082	120.605	-98.70	24.63	18.20	-0.098	35.574	19.012	0.62442	-0.73862	-0.00653	0.25381	27.3	13111	100
2025-3-13 9:20:40.367	WT901BLE68(E947F43FF2E9)	-0.049	1.016	0.080	0.488	5.615	-34.729	80.10	0.93	173.87	12.740	-63.798	21.168	-0.01663	0.04352	0.63910	0.76764	28.5	13111	100
2025-3-13 9:20:40.377	WT901BLE68(490AABDC0D29)	-0.020	-0.539	0.221	21.545	-8.057	-97.046	-94.55	22.41	24.41	13.230	33.516	26.852	0.62442	-0.73862	-0.00653	0.25381	27.3	13111	100
2025-3-13 9:20:40.468	WT901BLE68(E947F43FF2E9)	-0.156	1.001	0.068	0.366	4.700	-40.588	80.57	4.53	172.72	12.740	-63.798	21.168	-0.01663	0.04352	0.63910	0.76764	28.5	13111	100
2025-3-13 9:20:40.468	WT901BLE68(490AABDC0D29)	-0.158	-1.083	-0.059	80.750	-32.471	-246.094	-87.19	1.96	27.89	13.230	33.516	26.852	0.62442	-0.73862	-0.00653	0.25381	27.3	13111	100
2025-3-13 9:20:40.576	WT901BLE68(E947F43FF2E9)	-0.224	0.990	0.089	-2.441	1.099	-45.715	80.69	8.62	171.12	12.740	-63.798	21.168	0.13055	-0.02164	0.64893	0.74918	28.5	13111	100
2025-3-13 9:20:40.585	WT901BLE68(490AABDC0D29)	-1.177	-1.797	-0.212	77.209	-8.362	-279.297	-78.37	-24.23	25.38	13.230	33.516	26.852	0.78860	-0.52567	-0.31476	-0.05096	27.3	13111	100
2025-3-13 9:20:40.649	WT901BLE68(E947F43FF2E9)	0.044	1.098	0.007	0.916	7.629	-69.458	80.87	13.78	169.68	12.740	-63.798	21.168	0.13055	-0.02164	0.64893	0.74918	28.5	13111	100
2025-3-13 9:20:40.649	WT901BLE68(490AABDC0D29)	-0.032	-1.328	-0.708	-15.259	-49.683	135.925	-72.93	-32.05	17.56	13.230	33.516	26.852	0.78860	-0.52567	-0.31476	-0.05096	27.3	13111	100
2025-3-13 9:20:40.762	WT901BLE68(E947F43FF2E9)	-1.422	1.760	-0.026	-4.517	30.945	-139.099	80.98	23.22	167.83	34.496	-59.780	22.834	0.13055	-0.02164	0.64893	0.74918	28.5	13111	100
2025-3-13 9:20:40.794	WT901BLE68(490AABDC0D29)	0.140	-1.491	-0.068	-16.846	-27.893	87.830	-74.37	-23.47	20.17	-23.716	39.200	17.738	0.78860	-0.52567	-0.31476	-0.05096	27.3	13111	100
2025-3-13 9:20:40.848	WT901BLE68(E947F43FF2E9)	-0.048	0.397	0.237	21.912	121.399	-160.278	85.66	38.86	175.96	34.496	-59.780	22.834	0.13055	-0.02164	0.64893	0.74918	28.5	13111	100
2025-3-13 9:20:40.855	WT901BLE68(490AABDC0D29)	0.117	-1.034	0.066	2.197	-11.047	56.824	-75.22	-15.94	19.96	-23.716	39.200	17.738	0.78860	-0.52567	-0.31476	-0.05096	27.3	13111	100
2025-3-13 9:20:40.968	WT901BLE68(E947F43FF2E9)	-0.055	0.504	0.017	-18.555	-15.198	81.909	88.17	38.57	179.44	34.496	-59.780	22.834	0.16464	-0.15359	0.66248	0.71439	28.5	13111	100
2025-3-13 9:20:40.975	WT901BLE68(490AABDC0D29)	0.092	-0.982	0.103	-8.667	8.728	33.813	-76.28	-10.95	18.46	-23.716	39.200	17.738	0.77707	-0.60785	-0.14749	0.06940	27.3	13111	100
2025-3-13 9:20:41.55	WT901BLE68(E947F43FF2E9)	-0.133	0.974	-0.173	-48.096	45.105	194.946	84.72	21.95	178.67	34.496	-59.780	22.834	0.16464	-0.15359	0.66248	0.71439	28.5	13111	100
2025-3-13 9:20:41.64	WT901BLE68(490AABDC0D29)	0.047	-0.966	0.106	-12.817	-4.578	33.447	-77.72	-7.49	16.50	-23.716	39.200	17.738	0.77707	-0.60785	-0.14749	0.06940	27.3	13111	100
2025-3-13 9:20:41.176	WT901BLE68(E947F43FF2E9)	-1.012	1.450	-0.279	-40.466	56.946	238.953	81.76	-0.68	-176.58	-1.862	-68.698	11.956	0.16464	-0.15359	0.66248	0.71439	28.5	13111	100
2025-3-13 9:20:41.184	WT901BLE68(490AABDC0D29)	0.012	-0.997	0.081	-21.057	-12.146	35.095	-79.83	-4.22	15.62	-10.976	43.022	22.442	0.77707	-0.60785	-0.14749	0.06940	27.3	13111	100
2025-3-13 9:20:41.254	WT901BLE68(E947F43FF2E9)	1.957	1.390	-0.022	-9.094	44.495	120.300	78.68	-17.45	-164.92	-1.862	-68.698	11.956	0.16464	-0.15359	0.66248	0.71439	28.5	13111	100
2025-3-13 9:20:41.273	WT901BLE68(490AABDC0D29)	0.216	-1.023	0.022	-32.471	-12.085	44.617	-82.91	-0.65	15.27	-10.976	43.022	22.442	0.77707	-0.60785	-0.14749	0.06940	27.3	13111	100
2025-3-13 9:20:41.356	WT901BLE68(E947F43FF2E9)	0.200	1.282	0.333	-45.898	-24.475	-8.057	77.06	-11.11	-161.19	-1.862	-68.698	11.956	-0.14252	-0.06635	0.62469	0.76480	28.5	13111	100
2025-3-13 9:20:41.393	WT901BLE68(490AABDC0D29)	0.199	-1.569	0.126	-50.659	11.963	111.694	-87.40	6.47	14.51	-10.976	43.022	22.442	0.67685	-0.71472	0.01331	0.17545	27.3	13111	100
2025-3-13 9:20:41.450	WT901BLE68(E947F43FF2E9)	-0.083	1.101	0.081	-6.653	-36.194	-63.477	77.84	-2.29	-163.49	-1.862	-68.698	11.956	-0.14252	-0.06635	0.62469	0.76480	28.5	13111	100
2025-3-13 9:20:41.454	WT901BLE68(490AABDC0D29)	0.109	-1.131	0.113	-79.529	44.312	158.447	-94.38	20.82	11.56	-10.976	43.022	22.442	0.67685	-0.71472	0.01331	0.17545	27.3	13111	100
2025-3-13 9:20:41.566	WT901BLE68(E947F43FF2E9)	-0.034	0.993	0.105	3.540	-18.921	-43.762	77.97	2.79	-164.65	1.470	-70.854	7.742	-0.14252	-0.06635	0.62469	0.76480	28.5	13111	100
2025-3-13 9:20:41.573	WT901BLE68(490AABDC0D29)	-0.019	-0.481	0.289	21.667	-139.038	-34.790	-98.23	26.46	13.26	10.290	40.768	34.594	0.67685	-0.71472	0.01331	0.17545	27.3	13111	100
2025-3-13 9:20:41.655	WT901BLE68(E947F43FF2E9)	-0.117	1.004	0.078	6.775	4.578	-33.447	78.88	5.97	-165.68	1.470	-70.854	7.742	-0.14252	-0.06635	0.62469	0.76480	28.5	13111	100
2025-3-13 9:20:41.664	WT901BLE68(490AABDC0D29)	-0.013	-0.747	0.002	42.664	-31.250	-169.189	-91.79	14.19	20.13	10.290	40.768	34.594	0.67685	-0.71472	0.01331	0.17545	27.3	13111	100
2025-3-13 9:20:41.776	WT901BLE68(E947F43FF2E9)	-0.188	0.993	0.068	3.784	5.981	-41.687	79.76	9.35	-166.79	1.470	-70.854	7.742	-0.00961	-0.15173	0.62778	0.76331	28.5	13111	100
2025-3-13 9:20:41.784	WT901BLE68(490AABDC0D29)	-0.137	-1.250	-0.102	72.083	-17.639	-208.435	-84.67	-6.35	20.89	10.290	40.768	34.594	0.76627	-0.59000	-0.25418	0.00226	27.3	13111	100
2025-3-13 9:20:41.865	WT901BLE68(E947F43FF2E9)	-0.183	0.984	0.083	7.080	2.991	-45.898	80.35	13.29	-168.05	1.470	-70.854	7.742	-0.00961	-0.15173	0.62778	0.76331	28.5	13111	100
2025-3-13 9:20:41.874	WT901BLE68(490AABDC0D29)	-0.577	-1.525	-0.124	58.044	-45.837	-208.618	-77.91	-26.68	18.45	10.290	40.768	34.594	0.76627	-0.59000	-0.25418	0.00226	27.3	13111	100
2025-3-13 9:20:41.986	WT901BLE68(E947F43FF2E9)	0.076	1.148	0.034	8.179	-0.793	-71.716	81.28	18.15	-169.71	18.326	-72.030	10.290	-0.00961	-0.15173	0.62778	0.76331	28.5	13111	100
2025-3-13 9:20:41.994	WT901BLE68(490AABDC0D29)	0.126	-1.313	-0.233	6.592	-13.611	97.961	-74.81	-28.81	14.09	-33.222	35.672	19.306	0.76627	-0.59000	-0.25418	0.00226	27.3	13111	100
2025-3-13 9:20:42.50	WT901BLE68(E947F43FF2E9)	0.205	1.509	-0.101	-12.451	61.890	-166.931	81.74	28.57	-171.83	18.326	-72.030	10.290	-0.00961	-0.15173	0.62778	0.76331	28.5	13111	100
2025-3-13 9:20:42.53	WT901BLE68(490AABDC0D29)	0.156	-0.875	0.111	14.038	0.305	65.430	-76.10	-18.83	16.13	-33.222	35.672	19.306	0.76627	-0.59000	-0.25418	0.00226	27.3	13111	100
2025-3-13 9:20:42.167	WT901BLE68(E947F43FF2E9)	0.280	0.373	0.196	2.136	82.520	-23.682	85.75	41.26	-168.18	18.326	-72.030	10.290	0.14844	-0.29773	0.61810	0.71216	28.5	13111	100
2025-3-13 9:20:42.173	WT901BLE68(490AABDC0D29)	0.111	-0.989	0.126	0.000	-10.742	46.021	-75.98	-12.64	13.49	-33.222	35.672	19.306	0.76627	-0.59000	-0.25418	0.00226	27.3	13111	100
2025-3-13 9:20:42.255	WT901BLE68(E947F43FF2E9)	0.001	0.757	0.080	-39.429	1.648	159.058	84.52	33.46	-169.75	18.326	-72.030	10.290	0.14844	-0.29773	0.61810	0.71216	28.5	13111	100
2025-3-13 9:20:42.267	WT901BLE68(490AABDC0D29)	0.036	-0.979	0.113	-4.883	-9.644	35.522	-76.98	-8.48	11.06	-33.222	35.672	19.306	0.78131	-0.61218	-0.11743	0.02939	27.3	13111	100
2025-3-13 9:20:42.381	WT901BLE68(E947F43FF2E9)	-0.581	1.287	-0.313	-56.030	65.796	242.737	81.56	12.33	-165.90	-1.470	-68.796	10.584	0.14844	-0.29773	0.61810	0.71216	28.5	13111	100
2025-3-13 9:20:42.384	WT901BLE68(490AABDC0D29)	-0.008	-0.979	0.091	-18.188	-8.789	37.964	-78.62	-4.77	9.53	-19.698	41.650	21.854	0.78131	-0.61218	-0.11743	0.02939	27.3	13111	100
2025-3-13 9:20:42.468	WT901BLE68(E947F43FF2E9)	-0.049	1.564	-0.352	-13.428	72.083	205.139	77.95	-10.75	-155.83	-1.470	-68.796	10.584	0.14844	-0.29773	0.61810	0.71216	28.5	13111	100
2025-3-13 9:20:42.474	WT901BLE68(490AABDC0D29)	0.021	-0.999	0.061	-33.142	-9.949	43.823	-81.54	-1.05	8.65	-19.698	41.650	21.854	0.78131	-0.61218	-0.11743	0.02939	27.3	13111	100
2025-3-13 9:20:42.586	WT901BLE68(E947F43FF2E9)	-0.122	1.136	-0.680	2.808	-10.742	-99.609	76.08	-10.61	-148.32	-1.470	-68.796	10.584	-0.21567	-0.11072	0.60641	0.75720	28.5	13111	100
2025-3-13 9:20:42.594	WT901BLE68(490AABDC0D29)	0.274	-1.545	0.020	-49.072	-27.283	89.172	-85.76	4.76	8.49	-19.698	41.650	21.854	0.69101	-0.70728	0.04678	0.14127	27.3	13111	100
2025-3-13 9:20:42.658	WT901BLE68(E947F43FF2E9)	-0.111	0.979	0.197	-33.813	-76.904	-71.045	75.87	-2.20	-156.46	-1.470	-68.796	10.584	-0.21567	-0.11072	0.60641	0.75720	28.5	13111	100
2025-3-13 9:20:42.683	WT901BLE68(490AABDC0D29)	0.101	-1.353	0.048	-65.491	35.645	175.476	-91.35	17.72	7.16	-19.698	41.650	21.854	0.69101	-0.70728	0.04678	0.14127	27.3	13111	100
2025-3-13 9:20:42.767	WT901BLE68(E947F43FF2E9)	-0.044	0.978	0.102	-6.165	-10.742	-39.124	75.45	3.00	-157.96	-0.294	-74.578	10.682	-0.21567	-0.11072	0.60641	0.75720	28.5	13111	100
2025-3-13 9:20:42.804	WT901BLE68(490AABDC0D29)	0.090	-0.524	0.151	-20.996	-63.904	1.282	-99.01	26.84	4.59	6.468	44.492	34.594	0.69101	-0.70728	0.04678	0.14127	27.3	13111	100
2025-3-13 9:20:42.856	WT901BLE68(E947F43FF2E9)	0.004	1.018	0.098	4.822	2.563	-29.297	76.07	5.87	-158.86	-0.294	-74.578	10.682	-0.21567	-0.11072	0.60641	0.75720	28.5	13111	100
2025-3-13 9:20:42.863	WT901BLE68(490AABDC0D29)	0.063	-0.717	0.137	31.494	-41.626	-169.312	-92.26	16.38	14.62	6.468	44.492	34.594	0.69101	-0.70728	0.04678	0.14127	27.3	13111	100
2025-3-13 9:20:42.977	WT901BLE68(E947F43FF2E9)	-0.168	1.011	0.146	-2.869	5.249	-42.053	76.48	9.04	-160.45	-0.294	-74.578	10.682	-0.05896	-0.18246	0.59390	0.78128	28.5	13111	100
2025-3-13 9:20:42.984	WT901BLE68(490AABDC0D29)	-0.435	-1.257	0.139	67.322	-25.635	-251.587	-85.64	-6.71	17.89	6.468	44.492	34.594	0.69101	-0.70728	0.04678	0.14127	27.3	13111	100
2025-3-13 9:20:43.65	WT901BLE68(E947F43FF2E9)	-0.177	1.011	0.102	-5.676	10.498	-49.927	76.45	13.32	-161.84	-0.294	-74.578	10.682	-0.05896	-0.18246	0.59390	0.78128	28.5	13111	100
2025-3-13 9:20:43.74	WT901BLE68(490AABDC0D29)	-0.276	-1.902	-0.253	71.533	52.002	-232.910	-75.03	-30.50	7.96	6.468	44.492	34.594	0.77451	-0.57156	-0.24893	-0.10666	27.3	13111	100
2025-3-13 9:20:43.186	WT901BLE68(E947F43FF2E9)	0.030	1.164	0.089	-1.465	-4.761	-72.998	76.35	18.70	-164.15	20.090	-76.930	10.094	-0.05896	-0.18246	0.59390	0.78128	28.5	13111	100
2025-3-13 9:20:43.194	WT901BLE68(490AABDC0D29)	-0.157	-1.172	-0.453	-4.395	-50.598	117.310	-71.50	-28.98	2.15	6.468	44.492	34.594	0.77451	-0.57156	-0.24893	-0.10666	27.3	13111	100
2025-3-13 9:20:43.275	WT901BLE68(E947F43FF2E9)	-1.264	1.533	0.053	-13.977	57.007	-134.705	75.92	28.15	-166.51	20.090	-76.930	10.094	-0.05896	-0.18246	0.59390	0.78128	28.5	13111	100
2025-3-13 9:20:43.283	WT901BLE68(490AABDC0D29)	0.126	-1.268	0.120	-6.165	-46.143	98.450	-73.91	-22.01	2.03	-48.216	37.926	10.290	0.77451	-0.57156	-0.24893	-0.10666	27.3	13111	100
2025-3-13 9:20:43.396	WT901BLE68(E947F43FF2E9)	0.092	0.758	0.242	4.333	79.712	-130.615	79.85	42.93	-160.98	20.090	-76.930	10.094	0.09930	-0.39828	0.55792	0.72119	28.5	13111	100
2025-3-13 9:20:43.404	WT901BLE68(490AABDC0D29)	0.071	-0.997	0.084	-2.747	-18.799	66.589	-75.43	-16.17	1.51	-48.216	37.926	10.290	0.77835	-0.61917	-0.08136	-0.06378	27.3	13111	100
2025-3-13 9:20:43.459	WT901BLE68(E947F43FF2E9)	-0.034	0.687	-0.061	-14.832	-21.973	118.958	84.55	39.11	-157.14	20.090	-76.930	10.094	0.09930	-0.39828	0.55792	0.72119	28.5	13111	100
2025-3-13 9:20:43.463	WT901BLE68(490AABDC0D29)	0.110	-0.985	0.089	-11.047	0.793	32.837	-77.17	-11.51	-0.20	-48.216	37.926	10.290	0.77835	-0.61917	-0.08136	-0.06378	27.3	13111	100
2025-3-13 9:20:43.576	WT901BLE68(E947F43FF2E9)	-0.262	1.152	-0.211	-29.480	43.884	223.511	81.52	18.42	-159.40	-6.958	-73.108	9.506	0.09930	-0.39828	0.55792	0.72119	28.5	13111	100
2025-3-13 9:20:43.583	WT901BLE68(490AABDC0D29)	0.072	-0.974	0.108	-19.348	3.906	26.978	-79.06	-8.69	-2.74	-48.216	37.926	10.290	0.77835	-0.61917	-0.08136	-0.06378	27.3	13111	100
2025-3-13 9:20:43.666	WT901BLE68(E947F43FF2E9)	-1.365	1.641	-0.284	-14.099	23.560	257.263	80.58	-6.20	-151.58	-6.958	-73.108	9.506	0.09930	-0.39828	0.55792	0.72119	28.5	13111	100
2025-3-13 9:20:43.674	WT901BLE68(490AABDC0D29)	0.082	-0.982	0.083	-31.494	-6.714	42.358	-81.77	-5.33	-4.92	-34.790	47.726	16.366	0.77835	-0.61917	-0.08136	-0.06378	27.3	13111	100
2025-3-13 9:20:43.786	WT901BLE68(E947F43FF2E9)	-0.604	0.856	-0.012	4.028	29.663	-81.970	79.72	-13.54	-145.23	-6.958	-73.108	9.506	-0.25418	-0.15576	0.61301	0.73160	28.5	13111	100
2025-3-13 9:20:43.794	WT901BLE68(490AABDC0D29)	0.192	-1.248	-0.005	-55.603	-1.892	91.248	-86.04	0.35	-6.45	-34.790	47.726	16.366	0.77835	-0.61917	-0.08136	-0.06378	27.3	13111	100
2025-3-13 9:20:43.876	WT901BLE68(E947F43FF2E9)	-0.031	1.113	0.010	-2.991	-90.576	-108.093	78.55	-2.75	-147.27	-6.958	-73.108	9.506	-0.25418	-0.15576	0.61301	0.73160	28.5	13111	100
2025-3-13 9:20:43.913	WT901BLE68(490AABDC0D29)	0.154	-1.325	0.241	-82.397	70.740	172.424	-92.33	13.23	-10.92	-34.790	47.726	16.366	0.67007	-0.71591	0.19263	0.03580	27.3	13111	100
2025-3-13 9:20:43.997	WT901BLE68(E947F43FF2E9)	-0.002	0.989	0.063	-4.700	-4.333	-30.518	77.92	2.60	-148.90	-12.348	-65.562	8.134	-0.25418	-0.15576	0.61301	0.73160	28.5	13111	100
2025-3-13 9:20:44.4	WT901BLE68(490AABDC0D29)	0.007	-0.626	0.316	44.678	-207.031	-0.610	-97.94	22.42	-12.66	-34.790	47.726	16.366	0.67007	-0.71591	0.19263	0.03580	27.3	13111	100
2025-3-13 9:20:44.55	WT901BLE68(E947F43FF2E9)	-0.038	1.001	0.056	1.587	-2.747	-22.522	78.24	4.91	-148.08	-12.348	-65.562	8.134	-0.25418	-0.15576	0.61301	0.73160	28.5	13111	100
2025-3-13 9:20:44.93	WT901BLE68(490AABDC0D29)	0.205	-0.870	-0.153	60.059	-23.499	-188.354	-88.99	11.50	-3.38	-11.956	46.060	28.224	0.67007	-0.71591	0.19263	0.03580	27.3	13111	100
2025-3-13 9:20:44.177	WT901BLE68(E947F43FF2E9)	-0.063	1.010	0.041	2.014	-6.165	-33.264	78.87	7.34	-148.15	-12.348	-65.562	8.134	-0.15829	-0.23499	0.59418	0.75272	28.5	13111	100
2025-3-13 9:20:44.213	WT901BLE68(490AABDC0D29)	-0.613	-1.356	0.030	73.792	-33.264	-249.573	-81.21	-12.13	0.06	-11.956	46.060	28.224	0.67007	-0.71591	0.19263	0.03580	27.3	13111	100
2025-3-13 9:20:44.266	WT901BLE68(E947F43FF2E9)	-0.174	1.020	0.032	7.385	-3.601	-50.964	79.51	10.71	-148.55	-12.348	-65.562	8.134	-0.15829	-0.23499	0.59418	0.75272	28.5	13111	100
2025-3-13 9:20:44.274	WT901BLE68(490AABDC0D29)	0.894	-1.275	-0.193	26.611	77.393	-146.240	-73.03	-31.03	-13.39	-11.956	46.060	28.224	0.74814	-0.58606	-0.13864	-0.27832	27.3	13111	100
2025-3-13 9:20:44.386	WT901BLE68(E947F43FF2E9)	0.253	1.505	0.027	15.930	-16.296	-101.563	80.29	16.88	-150.61	6.762	-71.050	10.486	-0.15829	-0.23499	0.59418	0.75272	28.5	13111	100
2025-3-13 9:20:44.394	WT901BLE68(490AABDC0D29)	0.226	-1.182	-0.629	-52.368	60.242	54.138	-70.53	-25.74	-23.02	-11.956	46.060	28.224	0.74814	-0.58606	-0.13864	-0.27832	27.3	13111	100
2025-3-13 9:20:44.476	WT901BLE68(E947F43FF2E9)	0.295	1.365	0.062	0.366	88.501	-172.668	81.07	28.92	-153.16	6.762	-71.050	10.486	-0.15829	-0.23499	0.59418	0.75272	28.5	13111	100
2025-3-13 9:20:44.483	WT901BLE68(490AABDC0D29)	0.145	-0.828	0.308	9.216	3.662	42.664	-72.97	-16.00	-21.69	-32.438	28.126	17.738	0.74814	-0.58606	-0.13864	-0.27832	27.3	13111	100
2025-3-13 9:20:44.597	WT901BLE68(E947F43FF2E9)	0.411	0.405	-0.098	45.105	-41.931	3.662	84.58	39.62	-153.03	6.762	-71.050	10.486	0.05753	-0.27402	0.59695	0.75174	28.5	13111	100
2025-3-13 9:20:44.604	WT901BLE68(490AABDC0D29)	0.115	-0.926	0.219	-8.789	-16.357	51.514	-74.16	-10.63	-21.80	-32.438	28.126	17.738	0.74814	-0.58606	-0.13864	-0.27832	27.3	13111	100
2025-3-13 9:20:44.685	WT901BLE68(E947F43FF2E9)	-0.196	0.917	0.248	7.141	5.005	188.721	81.03	25.74	-164.45	6.762	-71.050	10.486	0.05753	-0.27402	0.59695	0.75174	28.5	13111	100
2025-3-13 9:20:44.693	WT901BLE68(490AABDC0D29)	-0.002	-0.979	0.155	-9.521	-10.132	40.649	-75.83	-6.37	-21.56	-32.438	28.126	17.738	0.76706	-0.61163	0.07431	-0.17856	27.3	13111	100
2025-3-13 9:20:44.809	WT901BLE68(E947F43FF2E9)	-1.191	1.415	-0.165	-41.931	61.462	241.882	80.32	3.28	-159.32	-6.468	-58.898	6.468	0.05753	-0.27402	0.59695	0.75174	28.5	13111	100
2025-3-13 9:20:44.815	WT901BLE68(490AABDC0D29)	-0.001	-0.979	0.142	-20.508	-10.498	39.551	-77.86	-2.63	-21.42	-32.438	28.126	17.738	0.76706	-0.61163	0.07431	-0.17856	27.3	13111	100
2025-3-13 9:20:44.865	WT901BLE68(E947F43FF2E9)	1.275	1.428	-0.232	-19.043	-16.663	162.170	76.27	-17.39	-149.84	-6.468	-58.898	6.468	0.05753	-0.27402	0.59695	0.75174	28.5	13111	100
2025-3-13 9:20:44.876	WT901BLE68(490AABDC0D29)	-0.025	-1.004	0.094	-25.269	-6.470	43.274	-80.39	0.91	-21.08	-21.462	34.986	22.834	0.76706	-0.61163	0.07431	-0.17856	27.3	13111	100
2025-3-13 9:20:44.988	WT901BLE68(E947F43FF2E9)	0.161	1.639	-0.150	-83.984	-68.787	-44.556	75.30	-13.96	-149.79	-6.468	-58.898	6.468	-0.21762	-0.07974	0.60898	0.75848	28.5	13111	100
2025-3-13 9:20:44.995	WT901BLE68(490AABDC0D29)	0.308	-1.354	0.032	-40.283	2.930	82.886	-83.81	6.67	-20.97	-21.462	34.986	22.834	0.76706	-0.61163	0.07431	-0.17856	27.3	13111	100
2025-3-13 9:20:45.78	WT901BLE68(E947F43FF2E9)	-0.092	0.750	0.500	-35.950	-54.138	-64.880	75.31	-6.45	-156.07	-6.468	-58.898	6.468	-0.21762	-0.07974	0.60898	0.75848	28.5	13111	100
2025-3-13 9:20:45.85	WT901BLE68(490AABDC0D29)	-0.011	-1.369	0.131	-46.509	46.570	180.908	-88.36	20.45	-22.31	-21.462	34.986	22.834	0.69989	-0.65015	0.29553	0.00522	27.3	13111	100
2025-3-13 9:20:45.230	WT901BLE68(E947F43FF2E9)	-0.052	0.938	0.077	-9.338	-20.447	-43.213	74.89	-1.66	-157.79	0.392	-61.054	5.782	-0.21762	-0.07974	0.60898	0.75848	28.5	13111	100
2025-3-13 9:20:45.230	WT901BLE68(490AABDC0D29)	0.062	-0.638	-0.000	-33.264	0.183	40.161	-96.62	29.90	-26.52	-21.462	34.986	22.834	0.69989	-0.65015	0.29553	0.00522	27.3	13111	100
2025-3-13 9:20:45.288	WT901BLE68(E947F43FF2E9)	-0.030	1.013	0.062	-1.343	-7.019	-28.564	75.04	1.06	-159.88	0.392	-61.054	5.782	-0.21762	-0.07974	0.60898	0.75848	28.5	13111	100
2025-3-13 9:20:45.294	WT901BLE68(490AABDC0D29)	0.060	-0.790	0.033	43.335	-32.959	-178.955	-89.35	19.77	-16.04	-1.862	38.318	33.418	0.69989	-0.65015	0.29553	0.00522	27.3	13111	100
2025-3-13 9:20:45.408	WT901BLE68(E947F43FF2E9)	-0.114	0.999	0.107	-1.648	-4.944	-37.354	75.40	3.89	-162.50	0.392	-61.054	5.782	-0.06076	-0.12769	0.60114	0.78647	28.5	13111	100
2025-3-13 9:20:45.415	WT901BLE68(490AABDC0D29)	-0.438	-1.250	-0.087	59.998	44.495	-240.662	-83.14	-2.36	-16.30	-1.862	38.318	33.418	0.69989	-0.65015	0.29553	0.00522	27.3	13111	100
2025-3-13 9:20:45.467	WT901BLE68(E947F43FF2E9)	-0.193	1.013	0.103	2.075	-5.127	-50.720	75.77	7.79	-165.76	0.392	-61.054	5.782	-0.06076	-0.12769	0.60114	0.78647	28.5	13111	100
2025-3-13 9:20:45.504	WT901BLE68(490AABDC0D29)	-0.748	-1.662	-0.136	56.458	42.480	-217.590	-75.27	-24.74	-26.74	-1.862	38.318	33.418	0.71747	-0.61209	-0.03955	-0.33002	27.3	13111	100
2025-3-13 9:20:45.588	WT901BLE68(E947F43FF2E9)	-0.081	1.137	0.017	4.944	-7.263	-69.153	76.29	13.01	-168.97	0.392	-61.054	5.782	-0.06076	-0.12769	0.60114	0.78647	28.5	13111	100
2025-3-13 9:20:45.624	WT901BLE68(490AABDC0D29)	-0.226	-1.158	-0.452	-17.639	23.804	110.901	-70.07	-27.04	-37.08	-1.862	38.318	33.418	0.71747	-0.61209	-0.03955	-0.33002	27.3	13111	100
2025-3-13 9:20:45.676	WT901BLE68(E947F43FF2E9)	-0.907	1.529	0.009	2.075	18.005	-129.456	76.34	22.23	-173.74	18.130	-64.190	6.664	-0.06076	-0.12769	0.60114	0.78647	28.5	13111	100
2025-3-13 9:20:45.684	WT901BLE68(490AABDC0D29)	0.182	-1.226	0.339	4.639	-45.471	105.774	-71.78	-20.15	-36.72	-41.748	33.320	18.228	0.71747	-0.61209	-0.03955	-0.33002	27.3	13111	100
2025-3-13 9:20:45.798	WT901BLE68(E947F43FF2E9)	-0.076	0.809	0.223	25.391	45.044	-147.522	78.23	35.88	-175.33	18.130	-64.190	6.664	0.20132	-0.26389	0.60458	0.72400	28.5	13111	100
2025-3-13 9:20:45.805	WT901BLE68(490AABDC0D29)	0.112	-1.007	0.096	0.305	-12.573	56.763	-72.90	-15.00	-34.46	-41.748	33.320	18.228	0.71747	-0.61209	-0.03955	-0.33002	27.3	13111	100
2025-3-13 9:20:45.887	WT901BLE68(E947F43FF2E9)	-0.050	0.529	-0.017	28.992	-45.349	62.561	80.32	37.02	-179.63	18.130	-64.190	6.664	0.20132	-0.26389	0.60458	0.72400	28.5	13111	100
2025-3-13 9:20:45.895	WT901BLE68(490AABDC0D29)	0.118	-0.999	0.158	-8.850	8.484	34.241	-74.25	-10.59	-33.67	-41.748	33.320	18.228	0.74329	-0.59720	0.11252	-0.27948	27.3	13111	100
2025-3-13 9:20:46.8	WT901BLE68(E947F43FF2E9)	0.007	0.866	0.138	26.123	-32.043	194.885	79.88	19.82	172.68	7.840	-71.932	9.408	0.20132	-0.26389	0.60458	0.72400	28.5	13111	100
2025-3-13 9:20:46.16	WT901BLE68(490AABDC0D29)	0.043	-0.970	0.178	-11.841	-3.052	32.349	-75.58	-7.55	-33.92	-41.748	33.320	18.228	0.74329	-0.59720	0.11252	-0.27948	27.3	13111	100
2025-3-13 9:20:46.96	WT901BLE68(E947F43FF2E9)	-0.479	1.466	0.143	-1.160	28.625	232.544	81.60	-2.33	175.89	7.840	-71.932	9.408	0.20132	-0.26389	0.60458	0.72400	28.5	13111	100
2025-3-13 9:20:46.105	WT901BLE68(490AABDC0D29)	-0.015	-0.982	0.172	-15.320	-2.930	38.269	-77.23	-4.38	-33.60	-29.400	42.140	20.678	0.74329	-0.59720	0.11252	-0.27948	27.3	13111	100
2025-3-13 9:20:46.218	WT901BLE68(E947F43FF2E9)	-0.030	1.167	-0.184	-10.315	177.673	90.271	76.83	-17.66	-167.69	7.840	-71.932	9.408	-0.28064	-0.10977	0.57977	0.75693	28.5	13111	100
2025-3-13 9:20:46.226	WT901BLE68(490AABDC0D29)	-0.012	-0.984	0.138	-19.043	-5.920	39.246	-79.12	-0.85	-32.81	-29.400	42.140	20.678	0.74329	-0.59720	0.11252	-0.27948	27.3	13111	100
2025-3-13 9:20:46.276	WT901BLE68(E947F43FF2E9)	-0.112	1.405	-0.587	1.953	70.862	-63.660	72.08	-8.62	-145.55	7.840	-71.932	9.408	-0.28064	-0.10977	0.57977	0.75693	28.5	13111	100
2025-3-13 9:20:46.285	WT901BLE68(490AABDC0D29)	0.198	-1.069	0.120	-33.630	-5.249	48.218	-81.80	3.07	-32.30	-29.400	42.140	20.678	0.72824	-0.62607	0.20795	-0.18536	27.3	13111	100
2025-3-13 9:20:46.398	WT901BLE68(E947F43FF2E9)	-0.156	0.958	0.276	-1.648	-95.581	-38.635	72.42	-2.91	-147.60	7.840	-71.932	9.408	-0.28064	-0.10977	0.57977	0.75693	28.5	13111	100
2025-3-13 9:20:46.407	WT901BLE68(490AABDC0D29)	-0.251	-1.635	-0.042	-39.124	45.654	139.282	-85.63	11.33	-33.54	-29.400	42.140	20.678	0.72824	-0.62607	0.20795	-0.18536	27.3	13111	100
2025-3-13 9:20:46.488	WT901BLE68(E947F43FF2E9)	0.028	0.974	0.084	0.244	-22.034	-36.133	72.96	0.47	-148.24	-15.974	-63.112	-3.822	-0.28064	-0.10977	0.57977	0.75693	28.5	13111	100
2025-3-13 9:20:46.526	WT901BLE68(490AABDC0D29)	0.353	-0.732	0.158	-88.989	-32.349	93.323	-93.26	24.86	-35.30	-3.136	47.236	32.536	0.72824	-0.62607	0.20795	-0.18536	27.3	13111	100
2025-3-13 9:20:46.607	WT901BLE68(E947F43FF2E9)	0.000	1.009	0.125	7.385	-3.174	-20.691	73.90	2.83	-147.58	-15.974	-63.112	-3.822	-0.28064	-0.10977	0.57977	0.75693	28.5	13111	100
2025-3-13 9:20:46.616	WT901BLE68(490AABDC0D29)	-0.068	-0.611	0.104	-51.208	-132.080	-129.578	-89.34	18.17	-15.61	-3.136	47.236	32.536	0.72824	-0.62607	0.20795	-0.18536	27.3	13111	100
2025-3-13 9:20:46.698	WT901BLE68(E947F43FF2E9)	-0.057	1.008	0.062	8.667	24.414	-23.865	75.35	4.93	-145.07	-15.974	-63.112	-3.822	-0.21329	-0.22147	0.57193	0.76044	28.5	13111	100
2025-3-13 9:20:46.705	WT901BLE68(490AABDC0D29)	-0.433	-1.012	-0.111	-48.340	-235.840	-216.736	-91.97	-2.10	1.59	-3.136	47.236	32.536	0.68069	-0.72235	-0.12109	0.00766	27.3	13111	100
2025-3-13 9:20:46.818	WT901BLE68(E947F43FF2E9)	-0.001	1.000	0.093	11.108	21.057	-26.794	77.07	7.64	-141.26	-7.644	-68.012	-2.352	-0.21329	-0.22147	0.57193	0.76044	28.5	13111	100
2025-3-13 9:20:46.826	WT901BLE68(490AABDC0D29)	-0.338	-1.389	0.526	-7.080	-288.452	-120.911	-99.43	-16.31	29.85	-3.136	47.236	32.536	0.68069	-0.72235	-0.12109	0.00766	27.3	13111	100
2025-3-13 9:20:46.878	WT901BLE68(E947F43FF2E9)	0.006	1.013	0.240	11.841	28.625	-32.898	78.83	10.74	-138.74	-7.644	-68.012	-2.352	-0.21329	-0.22147	0.57193	0.76044	28.5	13111	100
2025-3-13 9:20:46.913	WT901BLE68(490AABDC0D29)	-0.036	-1.071	0.377	30.457	-226.929	34.485	-101.91	-12.55	47.88	-27.342	30.576	63.700	0.68069	-0.72235	-0.12109	0.00766	27.3	13111	100
2025-3-13 9:20:46.996	WT901BLE68(E947F43FF2E9)	-0.097	1.091	0.135	10.010	109.497	-10.681	81.28	13.49	-132.13	-7.644	-68.012	-2.352	-0.21329	-0.22147	0.57193	0.76044	28.5	13111	100
2025-3-13 9:20:47.50	WT901BLE68(490AABDC0D29)	0.050	-0.957	-0.197	38.208	-16.174	21.606	-97.36	-10.33	47.98	-27.342	30.576	63.700	0.68069	-0.72235	-0.12109	0.00766	27.3	13111	100
2025-3-13 9:20:47.87	WT901BLE68(E947F43FF2E9)	-0.237	0.976	-0.100	5.066	160.828	19.043	85.72	14.02	-116.47	-7.644	-68.012	-2.352	-0.31238	-0.43143	0.52689	0.66223	28.5	13111	100
2025-3-13 9:20:47.95	WT901BLE68(490AABDC0D29)	0.048	-0.999	-0.012	29.541	-25.879	-3.296	-93.48	-9.46	45.92	-27.342	30.576	63.700	0.65689	-0.64313	-0.33163	0.21158	27.3	13111	100
2025-3-13 9:20:47.216	WT901BLE68(490AABDC0D29)	0.028	-1.000	0.040	19.409	-22.217	6.042	-91.06	-8.89	44.64	-27.342	30.576	63.700	0.65689	-0.64313	-0.33163	0.21158	27.3	13111	100
2025-3-13 9:20:47.242	WT901BLE68(E947F43FF2E9)	-0.027	0.952	-0.189	-0.610	198.730	20.081	90.57	12.01	-92.68	-7.644	-68.012	-2.352	-0.31238	-0.43143	0.52689	0.66223	28.5	13111	100
2025-3-13 9:20:47.298	WT901BLE68(E947F43FF2E9)	0.157	0.961	-0.212	-5.066	238.403	-12.939	94.54	10.90	-68.57	7.252	-65.954	-15.680	-0.31238	-0.43143	0.52689	0.66223	28.5	13111	100
2025-3-13 9:20:47.305	WT901BLE68(490AABDC0D29)	0.028	-0.986	0.078	5.371	-13.733	4.456	-89.64	-8.04	42.70	-20.874	35.476	60.368	0.65689	-0.64313	-0.33163	0.21158	27.3	13111	100
2025-3-13 9:20:47.419	WT901BLE68(E947F43FF2E9)	0.420	0.962	-0.295	22.644	268.738	-17.212	100.22	9.04	-37.46	7.252	-65.954	-15.680	-0.31238	-0.43143	0.52689	0.66223	28.5	13111	100
2025-3-13 9:20:47.424	WT901BLE68(490AABDC0D29)	-0.025	-0.999	0.053	-4.883	-3.967	0.916	-89.51	-7.55	39.95	-20.874	35.476	60.368	0.65689	-0.64313	-0.33163	0.21158	27.3	13111	100
2025-3-13 9:20:47.507	WT901BLE68(E947F43FF2E9)	-0.459	0.971	0.084	5.615	212.646	20.813	104.05	3.11	-10.66	7.252	-65.954	-15.680	-0.61176	-0.78842	0.03830	0.05066	28.5	13111	100
2025-3-13 9:20:47.515	WT901BLE68(490AABDC0D29)	0.014	-1.002	-0.026	-11.536	-11.108	3.418	-90.13	-7.16	37.44	-20.874	35.476	60.368	0.68042	-0.65948	-0.26361	0.18024	27.3	13111	100
2025-3-13 9:20:47.628	WT901BLE68(E947F43FF2E9)	3.713	0.955	-0.150	-7.874	105.713	-0.061	103.80	-3.74	9.84	30.478	-67.326	-9.212	-0.61176	-0.78842	0.03830	0.05066	28.5	13111	100
2025-3-13 9:20:47.654	WT901BLE68(490AABDC0D29)	-0.040	-0.983	-0.020	-19.836	-25.574	12.085	-91.37	-6.36	35.98	-20.874	35.476	60.368	0.68042	-0.65948	-0.26361	0.18024	27.3	13111	100
2025-3-13 9:20:47.688	WT901BLE68(E947F43FF2E9)	0.050	4.478	-0.833	4.089	-90.454	-21.729	102.27	-0.24	3.55	30.478	-67.326	-9.212	-0.61176	-0.78842	0.03830	0.05066	28.5	13111	100
2025-3-13 9:20:47.695	WT901BLE68(490AABDC0D29)	0.072	-1.007	-0.156	-40.649	-49.866	15.015	-94.51	-4.48	36.47	-14.896	32.830	66.444	0.68042	-0.65948	-0.26361	0.18024	27.3	13111	100
2025-3-13 9:20:47.806	WT901BLE68(E947F43FF2E9)	-0.013	1.000	0.063	-13.977	-25.513	-28.381	101.18	3.40	3.87	30.478	-67.326	-9.212	-0.61176	-0.78842	0.03830	0.05066	28.5	13111	100
2025-3-13 9:20:47.815	WT901BLE68(490AABDC0D29)	0.093	-1.147	0.026	-50.659	-44.189	20.081	-99.18	-2.19	39.02	-14.896	32.830	66.444	0.68042	-0.65948	-0.26361	0.18024	27.3	13111	100
2025-3-13 9:20:47.898	WT901BLE68(E947F43FF2E9)	-0.014	0.987	0.013	-19.043	5.554	-16.541	99.32	4.30	7.78	30.478	-67.326	-9.212	-0.64777	-0.75763	-0.07761	-0.01633	28.5	13111	100
2025-3-13 9:20:47.905	WT901BLE68(490AABDC0D29)	-0.544	-1.204	-0.147	-78.308	-21.057	80.017	-105.19	2.89	37.90	-14.896	32.830	66.444	0.54639	-0.77228	-0.23236	0.22574	27.3	13111	100
2025-3-13 9:20:48.18	WT901BLE68(E947F43FF2E9)	-0.155	1.021	0.051	-16.418	-9.399	-29.907	97.44	6.10	11.18	30.478	-67.326	-9.212	-0.64777	-0.75763	-0.07761	-0.01633	28.5	13111	100
2025-3-13 9:20:48.26	WT901BLE68(490AABDC0D29)	0.089	-1.074	0.122	-33.020	-242.126	55.664	-110.70	12.84	42.50	-14.896	32.830	66.444	0.54639	-0.77228	-0.23236	0.22574	27.3	13111	100
2025-3-13 9:20:48.108	WT901BLE68(E947F43FF2E9)	0.022	1.012	0.044	-8.545	6.592	-8.118	96.05	7.37	14.75	36.456	-62.524	-16.072	-0.64777	-0.75763	-0.07761	-0.01633	28.5	13111	100
2025-3-13 9:20:48.116	WT901BLE68(490AABDC0D29)	-0.293	-0.671	0.227	36.133	-118.958	-125.061	-103.89	12.52	58.24	12.838	26.362	69.678	0.54639	-0.77228	-0.23236	0.22574	27.3	13111	100
2025-3-13 9:20:48.228	WT901BLE68(E947F43FF2E9)	-0.109	0.972	0.148	-4.211	10.071	-9.583	95.20	7.64	18.57	36.456	-62.524	-16.072	-0.64777	-0.75763	-0.07761	-0.01633	28.5	13111	100
2025-3-13 9:20:48.251	WT901BLE68(490AABDC0D29)	-1.383	-1.310	0.215	74.219	-136.414	-235.046	-95.32	-6.23	72.31	12.838	26.362	69.678	0.54639	-0.77228	-0.23236	0.22574	27.3	13111	100
2025-3-13 9:20:48.288	WT901BLE68(E947F43FF2E9)	-0.181	1.024	0.067	-10.437	7.629	-23.499	94.24	8.77	23.16	36.456	-62.524	-16.072	-0.67746	-0.70181	-0.20386	-0.08267	28.5	13111	100
2025-3-13 9:20:48.324	WT901BLE68(490AABDC0D29)	0.137	-1.258	-0.459	12.878	-31.006	-41.077	-90.40	-19.65	79.92	12.838	26.362	69.678	0.60291	-0.46112	-0.53049	0.37732	27.3	13111	100
2025-3-13 9:20:48.407	WT901BLE68(E947F43FF2E9)	0.052	1.027	0.058	-6.226	42.053	-30.457	93.42	11.22	27.68	36.456	-62.524	-16.072	-0.67746	-0.70181	-0.20386	-0.08267	28.5	13111	100
2025-3-13 9:20:48.455	WT901BLE68(490AABDC0D29)	0.159	-0.995	0.157	12.756	-54.443	34.851	-89.24	-14.22	81.64	12.838	26.362	69.678	0.60291	-0.46112	-0.53049	0.37732	27.3	13111	100
2025-3-13 9:20:48.498	WT901BLE68(E947F43FF2E9)	0.456	1.135	0.069	-35.706	86.548	-55.969	93.13	14.08	35.61	44.786	-58.408	-14.602	-0.67746	-0.70181	-0.20386	-0.08267	28.5	13111	100
2025-3-13 9:20:48.505	WT901BLE68(490AABDC0D29)	0.067	-0.981	0.073	6.104	-0.305	22.034	-87.95	-11.79	77.53	8.330	44.492	47.922	0.60291	-0.46112	-0.53049	0.37732	27.3	13111	100
2025-3-13 9:20:48.616	WT901BLE68(E947F43FF2E9)	0.297	0.742	-0.186	-35.400	247.070	-45.044	93.78	18.86	53.72	44.786	-58.408	-14.602	-0.67746	-0.70181	-0.20386	-0.08267	28.5	13111	100
2025-3-13 9:20:48.626	WT901BLE68(490AABDC0D29)	0.064	-0.986	0.144	2.441	-26.733	40.344	-86.97	-9.09	75.21	8.330	44.492	47.922	0.60291	-0.46112	-0.53049	0.37732	27.3	13111	100
2025-3-13 9:20:48.708	WT901BLE68(E947F43FF2E9)	0.036	0.946	-0.179	-33.203	81.848	127.930	96.83	12.13	74.11	44.786	-58.408	-14.602	-0.56766	-0.55331	-0.50095	-0.34720	28.5	13111	100
2025-3-13 9:20:48.715	WT901BLE68(490AABDC0D29)	0.042	-0.988	0.116	-7.751	-19.104	17.822	-87.50	-6.22	73.58	8.330	44.492	47.922	0.59857	-0.53607	-0.44025	0.40048	27.3	13111	100
2025-3-13 9:20:48.828	WT901BLE68(E947F43FF2E9)	-0.717	1.232	-0.260	-2.380	62.622	186.157	95.82	-5.71	80.43	44.786	-58.408	-14.602	-0.56766	-0.55331	-0.50095	-0.34720	28.5	13111	100
2025-3-13 9:20:48.836	WT901BLE68(490AABDC0D29)	-0.085	-0.983	0.095	-18.738	-7.813	24.048	-88.76	-4.37	71.49	8.330	44.492	47.922	0.59857	-0.53607	-0.44025	0.40048	27.3	13111	100
2025-3-13 9:20:48.917	WT901BLE68(E947F43FF2E9)	1.192	1.167	-0.169	10.132	28.748	99.915	95.70	-21.89	84.00	22.834	-72.520	11.662	-0.56766	-0.55331	-0.50095	-0.34720	28.5	13111	100
2025-3-13 9:20:48.925	WT901BLE68(490AABDC0D29)	0.079	-0.995	-0.068	-32.898	-3.052	27.283	-90.98	-1.96	68.99	17.346	40.474	49.784	0.59857	-0.53607	-0.44025	0.40048	27.3	13111	100
2025-3-13 9:20:49.53	WT901BLE68(E947F43FF2E9)	-0.219	1.376	-0.028	-33.081	93.872	-64.880	92.99	-20.18	90.76	22.834	-72.520	11.662	-0.56766	-0.55331	-0.50095	-0.34720	28.5	13111	100
2025-3-13 9:20:49.54	WT901BLE68(490AABDC0D29)	0.244	-1.270	0.013	-45.532	-12.146	48.889	-94.42	1.55	66.89	17.346	40.474	49.784	0.59857	-0.53607	-0.44025	0.40048	27.3	13111	100
2025-3-13 9:20:49.98	WT901BLE68(E947F43FF2E9)	0.038	1.047	0.084	-38.208	-69.336	-51.208	92.36	-10.94	89.58	22.834	-72.520	11.662	-0.45233	-0.55066	-0.45889	-0.53055	28.5	13111	100
2025-3-13 9:20:49.105	WT901BLE68(490AABDC0D29)	-0.304	-1.325	0.104	-51.086	7.568	115.417	-98.91	8.78	64.01	17.346	40.474	49.784	0.48981	-0.70905	-0.31897	0.39429	27.3	13111	100
2025-3-13 9:20:49.217	WT901BLE68(E947F43FF2E9)	0.022	0.995	0.064	-13.489	-11.902	-31.799	90.29	-6.99	89.40	22.834	-72.520	11.662	-0.45233	-0.55066	-0.45889	-0.53055	28.5	13111	100
2025-3-13 9:20:49.225	WT901BLE68(490AABDC0D29)	0.320	-0.982	0.174	-45.105	23.682	95.032	-106.69	18.37	54.70	17.346	40.474	49.784	0.48981	-0.70905	-0.31897	0.39429	27.3	13111	100
2025-3-13 9:20:49.306	WT901BLE68(E947F43FF2E9)	-0.004	1.002	0.087	-1.831	-0.732	-27.405	89.51	-3.87	89.45	30.674	-69.286	5.978	-0.45233	-0.55066	-0.45889	-0.53055	28.5	13111	100
2025-3-13 9:20:49.314	WT901BLE68(490AABDC0D29)	0.067	-0.586	0.179	30.518	34.851	-84.290	-101.98	18.94	59.27	25.480	30.674	54.292	0.48981	-0.70905	-0.31897	0.39429	27.3	13111	100
2025-3-13 9:20:49.427	WT901BLE68(E947F43FF2E9)	-0.114	0.993	0.081	2.319	1.221	-35.645	89.36	-0.70	90.54	30.674	-69.286	5.978	-0.45233	-0.55066	-0.45889	-0.53055	28.5	13111	100
2025-3-13 9:20:49.436	WT901BLE68(490AABDC0D29)	0.047	-1.064	-0.101	85.327	-32.532	-196.594	-94.82	2.27	59.49	25.480	30.674	54.292	0.48981	-0.70905	-0.31897	0.39429	27.3	13111	100
2025-3-13 9:20:49.518	WT901BLE68(E947F43FF2E9)	-0.156	1.006	0.081	-0.122	-4.944	-40.649	89.15	3.10	91.31	30.674	-69.286	5.978	-0.51361	-0.47327	-0.51810	-0.49362	28.5	13111	100
2025-3-13 9:20:49.525	WT901BLE68(490AABDC0D29)	-1.439	-1.392	-0.132	91.125	-25.513	-228.088	-86.52	-18.68	58.58	25.480	30.674	54.292	0.70895	-0.48822	-0.45975	0.21805	27.3	13111	100
2025-3-13 9:20:49.638	WT901BLE68(E947F43FF2E9)	-0.170	1.040	0.035	3.906	0.122	-53.467	89.17	7.71	92.16	30.674	-69.286	5.978	-0.51361	-0.47327	-0.51810	-0.49362	28.5	13111	100
2025-3-13 9:20:49.661	WT901BLE68(490AABDC0D29)	-0.228	-1.179	-0.435	1.892	59.753	-49.133	-78.10	-33.98	51.75	25.480	30.674	54.292	0.70895	-0.48822	-0.45975	0.21805	27.3	13111	100
2025-3-13 9:20:49.698	WT901BLE68(E947F43FF2E9)	0.269	1.396	0.035	14.709	-8.728	-81.421	89.81	14.08	92.09	44.296	-61.446	5.782	-0.51361	-0.47327	-0.51810	-0.49362	28.5	13111	100
2025-3-13 9:20:49.748	WT901BLE68(490AABDC0D29)	0.378	-1.327	-0.866	-69.336	17.700	60.364	-77.77	-25.85	47.79	-12.348	37.436	38.122	0.70895	-0.48822	-0.45975	0.21805	27.3	13111	100
2025-3-13 9:20:49.818	WT901BLE68(E947F43FF2E9)	0.284	1.314	-0.009	-13.611	107.666	-155.396	91.36	25.43	96.73	44.296	-61.446	5.782	-0.51361	-0.47327	-0.51810	-0.49362	28.5	13111	100
2025-3-13 9:20:49.856	WT901BLE68(490AABDC0D29)	0.219	-0.854	0.209	4.150	22.339	41.565	-78.46	-17.79	47.04	-12.348	37.436	38.122	0.70895	-0.48822	-0.45975	0.21805	27.3	13111	100
2025-3-13 9:20:49.908	WT901BLE68(E947F43FF2E9)	-0.077	0.102	0.175	17.090	79.773	-17.700	97.42	34.26	109.79	44.296	-61.446	5.782	-0.53122	-0.25513	-0.70535	-0.39377	28.5	13111	100
2025-3-13 9:20:49.915	WT901BLE68(490AABDC0D29)	0.106	-0.913	0.208	-3.967	-5.188	52.490	-78.78	-12.26	45.15	-12.348	37.436	38.122	0.73227	-0.56491	-0.29883	0.23502	27.3	13111	100
2025-3-13 9:20:50.43	WT901BLE68(E947F43FF2E9)	-0.318	0.743	0.090	-11.536	-44.983	132.751	96.14	25.94	107.93	44.296	-61.446	5.782	-0.53122	-0.25513	-0.70535	-0.39377	28.5	13111	100
2025-3-13 9:20:50.43	WT901BLE68(490AABDC0D29)	0.085	-0.980	0.168	-8.850	-2.136	30.945	-79.78	-8.42	43.00	-12.348	37.436	38.122	0.73227	-0.56491	-0.29883	0.23502	27.3	13111	100
2025-3-13 9:20:50.119	WT901BLE68(E947F43FF2E9)	-0.075	1.100	-0.048	-21.484	-34.607	189.331	92.46	8.73	103.92	42.434	-54.488	8.232	-0.53122	-0.25513	-0.70535	-0.39377	28.5	13111	100
2025-3-13 9:20:50.147	WT901BLE68(490AABDC0D29)	0.012	-0.981	0.150	-10.376	-7.202	34.973	-80.85	-5.31	41.72	1.862	36.456	39.396	0.73227	-0.56491	-0.29883	0.23502	27.3	13111	100
2025-3-13 9:20:50.246	WT901BLE68(E947F43FF2E9)	-0.324	1.235	-0.002	-16.968	7.874	179.443	90.00	-9.05	101.84	42.434	-54.488	8.232	-0.53122	-0.25513	-0.70535	-0.39377	28.5	13111	100
2025-3-13 9:20:50.247	WT901BLE68(490AABDC0D29)	-0.025	-0.997	0.119	-13.672	-3.357	33.508	-82.09	-2.05	40.76	1.862	36.456	39.396	0.73227	-0.56491	-0.29883	0.23502	27.3	13111	100
2025-3-13 9:20:50.342	WT901BLE68(E947F43FF2E9)	-0.757	1.117	-0.110	-13.184	-1.404	103.577	88.47	-21.58	102.19	42.434	-54.488	8.232	-0.33670	-0.53787	-0.44507	-0.63174	28.5	13111	100
2025-3-13 9:20:50.342	WT901BLE68(490AABDC0D29)	-0.091	-1.001	0.108	-19.958	-13.611	40.344	-83.72	1.22	39.89	1.862	36.456	39.396	0.68213	-0.64508	-0.20657	0.27527	27.3	13111	100
2025-3-13 9:20:50.450	WT901BLE68(E947F43FF2E9)	0.500	0.960	0.046	-13.550	-40.100	-60.913	87.40	-20.41	103.60	42.434	-54.488	8.232	-0.33670	-0.53787	-0.44507	-0.63174	28.5	13111	100
2025-3-13 9:20:50.455	WT901BLE68(490AABDC0D29)	0.201	-1.115	-0.012	-34.485	-17.761	59.998	-86.18	5.76	40.19	1.862	36.456	39.396	0.68213	-0.64508	-0.20657	0.27527	27.3	13111	100
2025-3-13 9:20:50.507	WT901BLE68(E947F43FF2E9)	-0.054	1.181	0.022	-33.142	-46.387	-84.534	87.57	-13.47	97.05	26.362	-63.504	0.686	-0.33670	-0.53787	-0.44507	-0.63174	28.5	13111	100
2025-3-13 9:20:50.522	WT901BLE68(490AABDC0D29)	-0.340	-1.548	0.026	-28.442	18.005	135.254	-89.43	14.02	39.96	20.972	25.578	49.196	0.68213	-0.64508	-0.20657	0.27527	27.3	13111	100
2025-3-13 9:20:50.626	WT901BLE68(E947F43FF2E9)	0.022	1.130	-0.015	-15.808	-30.701	-48.889	86.53	-7.65	92.74	26.362	-63.504	0.686	-0.33670	-0.53787	-0.44507	-0.63174	28.5	13111	100
2025-3-13 9:20:50.646	WT901BLE68(490AABDC0D29)	0.109	-0.889	0.443	-65.552	20.264	110.046	-96.83	27.05	32.55	20.972	25.578	49.196	0.68213	-0.64508	-0.20657	0.27527	27.3	13111	100
2025-3-13 9:20:50.725	WT901BLE68(E947F43FF2E9)	-0.016	0.981	0.106	2.136	-9.399	-31.982	86.20	-3.52	89.63	26.362	-63.504	0.686	-0.50876	-0.49683	-0.46973	-0.52301	28.5	13111	100
2025-3-13 9:20:50.726	WT901BLE68(490AABDC0D29)	-0.126	-0.521	0.300	15.259	-43.518	-95.398	-96.17	26.47	35.28	20.972	25.578	49.196	0.61133	-0.70944	-0.13510	0.32343	27.3	13111	100
2025-3-13 9:20:50.849	WT901BLE68(E947F43FF2E9)	-0.112	0.999	0.081	-2.808	-2.930	-41.626	86.25	-0.17	89.10	26.362	-63.504	0.686	-0.50876	-0.49683	-0.46973	-0.52301	28.5	13111	100
2025-3-13 9:20:50.849	WT901BLE68(490AABDC0D29)	-0.128	-0.975	0.102	48.767	7.446	-215.027	-90.28	8.60	38.07	20.972	25.578	49.196	0.61133	-0.70944	-0.13510	0.32343	27.3	13111	100
2025-3-13 9:20:50.927	WT901BLE68(E947F43FF2E9)	-0.242	1.021	0.089	-9.094	-1.892	-52.795	85.55	4.43	88.41	38.612	-57.918	-4.018	-0.50876	-0.49683	-0.46973	-0.52301	28.5	13111	100
2025-3-13 9:20:50.943	WT901BLE68(490AABDC0D29)	-0.990	-1.436	0.089	83.191	20.203	-227.966	-83.23	-13.63	33.59	1.470	42.728	46.942	0.61133	-0.70944	-0.13510	0.32343	27.3	13111	100
2025-3-13 9:20:51.51	WT901BLE68(E947F43FF2E9)	0.044	1.079	0.034	-11.414	7.324	-67.261	84.46	10.07	88.61	38.612	-57.918	-4.018	-0.50876	-0.49683	-0.46973	-0.52301	28.5	13111	100
2025-3-13 9:20:51.55	WT901BLE68(490AABDC0D29)	-0.450	-1.443	-0.706	-1.953	163.147	-90.942	-72.51	-27.46	17.57	1.470	42.728	46.942	0.61133	-0.70944	-0.13510	0.32343	27.3	13111	100
2025-3-13 9:20:51.107	WT901BLE68(E947F43FF2E9)	-0.536	1.619	0.038	-11.475	21.729	-113.647	83.53	17.92	87.76	38.612	-57.918	-4.018	-0.60938	-0.38010	-0.54938	-0.42694	28.5	13111	100
2025-3-13 9:20:51.148	WT901BLE68(490AABDC0D29)	0.154	-1.527	0.812	6.714	-75.195	124.207	-73.92	-20.03	17.47	1.470	42.728	46.942	0.78326	-0.58484	-0.20236	0.05817	27.3	13111	100
2025-3-13 9:20:51.249	WT901BLE68(E947F43FF2E9)	0.115	0.666	0.278	11.108	67.322	-149.048	85.48	32.05	95.16	38.612	-57.918	-4.018	-0.60938	-0.38010	-0.54938	-0.42694	28.5	13111	100
2025-3-13 9:20:51.265	WT901BLE68(490AABDC0D29)	0.102	-1.158	0.060	-7.080	-5.249	45.837	-76.44	-13.05	19.65	1.470	42.728	46.942	0.78326	-0.58484	-0.20236	0.05817	27.3	13111	100
2025-3-13 9:20:51.324	WT901BLE68(E947F43FF2E9)	0.118	0.544	-0.166	50.354	37.903	69.031	90.72	35.46	99.07	61.054	-38.122	3.038	-0.60938	-0.38010	-0.54938	-0.42694	28.5	13111	100
2025-3-13 9:20:51.325	WT901BLE68(490AABDC0D29)	0.076	-1.020	0.109	-15.381	2.075	38.208	-78.54	-8.07	22.13	10.094	45.864	47.236	0.78326	-0.58484	-0.20236	0.05817	27.3	13111	100
2025-3-13 9:20:51.452	WT901BLE68(E947F43FF2E9)	-0.350	1.060	0.245	28.320	12.878	217.346	91.78	18.03	94.86	61.054	-38.122	3.038	-0.60938	-0.38010	-0.54938	-0.42694	28.5	13111	100
2025-3-13 9:20:51.452	WT901BLE68(490AABDC0D29)	-0.001	-0.980	0.142	-16.602	2.319	33.997	-80.39	-4.55	22.55	10.094	45.864	47.236	0.78326	-0.58484	-0.20236	0.05817	27.3	13111	100
2025-3-13 9:20:51.528	WT901BLE68(E947F43FF2E9)	-0.853	1.453	-0.083	-23.010	49.255	226.257	92.11	-5.73	100.58	61.054	-38.122	3.038	-0.37079	-0.51474	-0.49182	-0.59628	28.5	13111	100
2025-3-13 9:20:51.545	WT901BLE68(490AABDC0D29)	-0.041	-0.989	0.111	-20.691	-0.244	39.734	-82.36	-0.87	22.73	10.094	45.864	47.236	0.72662	-0.65735	-0.12256	0.15738	27.3	13111	100
2025-3-13 9:20:51.652	WT901BLE68(E947F43FF2E9)	1.263	1.386	0.012	-10.437	-61.707	146.118	90.40	-25.33	99.92	61.054	-38.122	3.038	-0.37079	-0.51474	-0.49182	-0.59628	28.5	13111	100
2025-3-13 9:20:51.655	WT901BLE68(490AABDC0D29)	0.039	-1.000	0.063	-28.625	-4.333	49.377	-84.87	3.22	23.16	10.094	45.864	47.236	0.72662	-0.65735	-0.12256	0.15738	27.3	13111	100
2025-3-13 9:20:51.745	WT901BLE68(E947F43FF2E9)	0.129	1.745	-0.517	-45.715	-25.330	-54.321	87.46	-23.42	102.88	19.992	-85.456	3.626	-0.37079	-0.51474	-0.49182	-0.59628	28.5	13111	100
2025-3-13 9:20:51.746	WT901BLE68(490AABDC0D29)	0.413	-1.508	0.077	-40.161	-17.456	85.632	-88.23	9.54	24.56	28.714	33.614	56.056	0.72662	-0.65735	-0.12256	0.15738	27.3	13111	100
2025-3-13 9:20:51.857	WT901BLE68(E947F43FF2E9)	-0.019	0.860	0.054	-33.813	-40.955	-43.335	88.35	-13.55	92.37	19.992	-85.456	3.626	-0.37079	-0.51474	-0.49182	-0.59628	28.5	13111	100
2025-3-13 9:20:51.868	WT901BLE68(490AABDC0D29)	0.142	-1.052	0.125	-53.284	116.577	153.625	-92.84	21.97	20.86	28.714	33.614	56.056	0.72662	-0.65735	-0.12256	0.15738	27.3	13111	100
2025-3-13 9:20:51.916	WT901BLE68(E947F43FF2E9)	-0.001	0.989	0.031	-9.338	-14.160	-37.415	87.70	-8.55	89.98	19.992	-85.456	3.626	-0.47864	-0.52417	-0.45255	-0.53967	28.5	13111	100
2025-3-13 9:20:51.927	WT901BLE68(490AABDC0D29)	0.164	-0.641	0.129	26.611	-17.273	-6.165	-100.17	28.81	11.68	28.714	33.614	56.056	0.64563	-0.72968	0.03799	0.22168	27.3	13111	100
2025-3-13 9:20:52.54	WT901BLE68(E947F43FF2E9)	-0.056	0.996	0.045	-3.479	-13.855	-31.067	87.51	-5.14	88.99	19.992	-85.456	3.626	-0.47864	-0.52417	-0.45255	-0.53967	28.5	13111	100
2025-3-13 9:20:52.54	WT901BLE68(490AABDC0D29)	0.241	-0.844	-0.050	83.496	20.874	-171.997	-92.61	18.47	14.32	28.714	33.614	56.056	0.64563	-0.72968	0.03799	0.22168	27.3	13111	100
2025-3-13 9:20:52.152	WT901BLE68(E947F43FF2E9)	-0.143	1.018	0.027	-2.869	-10.132	-45.776	87.29	-1.04	87.61	38.906	-79.674	-4.410	-0.47864	-0.52417	-0.45255	-0.53967	28.5	13111	100
2025-3-13 9:20:52.153	WT901BLE68(490AABDC0D29)	-0.898	-1.400	-0.113	108.887	83.496	-248.230	-82.87	-3.82	10.65	-11.466	47.138	45.472	0.64563	-0.72968	0.03799	0.22168	27.3	13111	100
2025-3-13 9:20:52.246	WT901BLE68(E947F43FF2E9)	-0.180	1.018	0.059	4.517	-7.751	-54.565	87.20	3.98	86.65	38.906	-79.674	-4.410	-0.47864	-0.52417	-0.45255	-0.53967	28.5	13111	100
2025-3-13 9:20:52.256	WT901BLE68(490AABDC0D29)	0.728	-1.602	-0.783	33.752	106.384	-179.504	-71.17	-22.84	-7.28	-11.466	47.138	45.472	0.64563	-0.72968	0.03799	0.22168	27.3	13111	100
2025-3-13 9:20:52.347	WT901BLE68(E947F43FF2E9)	0.255	1.403	-0.083	15.198	-25.085	-91.614	87.99	11.07	84.92	38.906	-79.674	-4.410	-0.59402	-0.44476	-0.53836	-0.39920	28.5	13111	100
2025-3-13 9:20:52.348	WT901BLE68(490AABDC0D29)	0.261	-1.053	-0.742	-76.294	43.884	46.692	-69.96	-19.27	-13.69	-11.466	47.138	45.472	0.78870	-0.59723	-0.03729	-0.14053	27.3	13111	100
2025-3-13 9:20:52.457	WT901BLE68(E947F43FF2E9)	0.348	1.502	0.025	2.380	87.402	-203.430	89.81	26.08	86.13	38.906	-79.674	-4.410	-0.59402	-0.44476	-0.53836	-0.39920	28.5	13111	100
2025-3-13 9:20:52.465	WT901BLE68(490AABDC0D29)	0.111	-1.009	0.132	-13.855	24.902	46.509	-73.78	-10.76	-10.52	-11.466	47.138	45.472	0.78870	-0.59723	-0.03729	-0.14053	27.3	13111	100
2025-3-13 9:20:52.517	WT901BLE68(E947F43FF2E9)	0.194	0.280	-0.082	53.833	-39.856	8.484	95.65	34.78	91.60	62.818	-49.882	3.038	-0.59402	-0.44476	-0.53836	-0.39920	28.5	13111	100
2025-3-13 9:20:52.556	WT901BLE68(490AABDC0D29)	0.115	-0.920	0.233	-15.625	-1.831	42.969	-75.75	-5.43	-9.00	-5.782	45.864	42.140	0.78870	-0.59723	-0.03729	-0.14053	27.3	13111	100
2025-3-13 9:20:52.657	WT901BLE68(E947F43FF2E9)	-0.092	0.760	0.141	32.288	-66.467	161.987	92.80	23.34	79.80	62.818	-49.882	3.038	-0.59402	-0.44476	-0.53836	-0.39920	28.5	13111	100
2025-3-13 9:20:52.674	WT901BLE68(490AABDC0D29)	0.000	-0.954	0.197	-18.250	-8.362	34.790	-77.88	-1.90	-7.77	-5.782	45.864	42.140	0.78870	-0.59723	-0.03729	-0.14053	27.3	13111	100
2025-3-13 9:20:52.731	WT901BLE68(E947F43FF2E9)	-0.338	1.239	0.069	15.808	-34.607	239.197	93.49	1.43	75.99	62.818	-49.882	3.038	-0.52094	-0.59967	-0.41452	-0.44394	28.5	13111	100
2025-3-13 9:20:52.749	WT901BLE68(490AABDC0D29)	-0.002	-0.993	0.137	-25.818	-6.409	31.311	-80.29	1.14	-6.15	-5.782	45.864	42.140	0.75061	-0.65866	0.05023	-0.01059	27.3	13111	100
2025-3-13 9:20:52.859	WT901BLE68(E947F43FF2E9)	-1.165	1.439	-0.050	-2.502	-27.100	214.417	93.91	-21.69	73.66	62.818	-49.882	3.038	-0.52094	-0.59967	-0.41452	-0.44394	28.5	13111	100
2025-3-13 9:20:52.859	WT901BLE68(490AABDC0D29)	-0.019	-1.002	0.104	-31.616	-7.813	37.231	-83.13	4.02	-4.47	-5.782	45.864	42.140	0.75061	-0.65866	0.05023	-0.01059	27.3	13111	100
2025-3-13 9:20:52.949	WT901BLE68(E947F43FF2E9)	0.204	0.934	0.146	-12.512	-20.203	-63.416	92.87	-31.14	75.09	12.152	-70.854	2.548	-0.52094	-0.59967	-0.41452	-0.44394	28.5	13111	100
2025-3-13 9:20:52.949	WT901BLE68(490AABDC0D29)	0.272	-1.119	0.101	-37.292	2.563	69.092	-86.47	8.97	-3.33	13.426	38.122	53.508	0.75061	-0.65866	0.05023	-0.01059	27.3	13111	100
2025-3-13 9:20:53.64	WT901BLE68(E947F43FF2E9)	0.160	0.898	0.065	-29.907	-55.542	-99.121	90.26	-20.99	74.34	12.152	-70.854	2.548	-0.52094	-0.59967	-0.41452	-0.44394	28.5	13111	100
2025-3-13 9:20:53.65	WT901BLE68(490AABDC0D29)	-0.716	-1.737	0.164	-29.297	37.598	155.029	-90.30	19.48	-4.02	13.426	38.122	53.508	0.75061	-0.65866	0.05023	-0.01059	27.3	13111	100
2025-3-13 9:20:53.161	WT901BLE68(E947F43FF2E9)	0.145	1.119	0.082	-5.615	-20.813	-36.377	89.05	-13.15	68.87	12.152	-70.854	2.548	-0.54929	-0.61148	-0.33807	-0.45822	28.5	13111	100
2025-3-13 9:20:53.161	WT901BLE68(490AABDC0D29)	0.199	-0.992	0.301	-59.937	81.482	104.004	-100.22	30.96	-15.14	13.426	38.122	53.508	0.64975	-0.70099	0.26605	0.12457	27.3	13111	100
2025-3-13 9:20:53.266	WT901BLE68(E947F43FF2E9)	0.042	0.990	0.048	-2.930	-0.549	-18.799	88.51	-9.37	69.40	12.152	-70.854	2.548	-0.54929	-0.61148	-0.33807	-0.45822	28.5	13111	100
2025-3-13 9:20:53.276	WT901BLE68(490AABDC0D29)	0.109	-0.523	0.108	60.486	13.000	-73.425	-95.90	29.04	-13.24	13.426	38.122	53.508	0.64975	-0.70099	0.26605	0.12457	27.3	13111	100
2025-3-13 9:20:53.326	WT901BLE68(E947F43FF2E9)	-0.093	1.006	0.047	-2.991	-10.864	-38.086	88.24	-6.25	70.06	28.224	-68.796	-2.450	-0.54929	-0.61148	-0.33807	-0.45822	28.5	13111	100
2025-3-13 9:20:53.360	WT901BLE68(490AABDC0D29)	0.104	-0.838	-0.260	97.839	41.687	-202.148	-88.38	12.10	-15.60	-0.980	44.002	51.646	0.64975	-0.70099	0.26605	0.12457	27.3	13111	100
2025-3-13 9:20:53.460	WT901BLE68(E947F43FF2E9)	-0.163	0.988	0.040	-1.099	-10.620	-51.331	87.99	-1.42	69.80	28.224	-68.796	-2.450	-0.54929	-0.61148	-0.33807	-0.45822	28.5	13111	100
2025-3-13 9:20:53.461	WT901BLE68(490AABDC0D29)	-1.743	-1.645	-0.288	89.844	68.420	-266.235	-78.54	-12.40	-21.77	-0.980	44.002	51.646	0.64975	-0.70099	0.26605	0.12457	27.3	13111	100
2025-3-13 9:20:53.536	WT901BLE68(E947F43FF2E9)	-0.049	1.031	0.019	6.775	-11.047	-68.787	88.32	4.43	69.50	28.224	-68.796	-2.450	-0.61182	-0.54785	-0.43271	-0.37170	28.5	13111	100
2025-3-13 9:20:53.561	WT901BLE68(490AABDC0D29)	0.063	-1.122	-0.675	-49.561	116.333	45.166	-71.24	-27.82	-33.48	-0.980	44.002	51.646	0.72302	-0.61197	0.03882	-0.31793	27.3	13111	100
2025-3-13 9:20:53.663	WT901BLE68(E947F43FF2E9)	0.440	1.529	-0.091	11.902	3.784	-118.225	89.25	13.17	69.37	28.224	-68.796	-2.450	-0.61182	-0.54785	-0.43271	-0.37170	28.5	13111	100
2025-3-13 9:20:53.665	WT901BLE68(490AABDC0D29)	0.125	-1.258	0.668	17.151	-43.579	104.187	-75.35	-18.28	-31.90	-0.980	44.002	51.646	0.72302	-0.61197	0.03882	-0.31793	27.3	13111	100
2025-3-13 9:20:53.762	WT901BLE68(E947F43FF2E9)	0.702	1.041	0.094	5.127	124.817	-163.696	92.22	27.58	74.81	55.076	-52.430	0.392	-0.61182	-0.54785	-0.43271	-0.37170	28.5	13111	100
2025-3-13 9:20:53.762	WT901BLE68(490AABDC0D29)	0.167	-1.069	0.120	-14.038	5.615	46.692	-77.89	-11.54	-29.27	-23.422	48.118	41.944	0.72302	-0.61197	0.03882	-0.31793	27.3	13111	100
2025-3-13 9:20:53.868	WT901BLE68(E947F43FF2E9)	0.217	0.558	0.077	3.723	-90.820	75.867	94.95	33.88	78.05	55.076	-52.430	0.392	-0.61182	-0.54785	-0.43271	-0.37170	28.5	13111	100
2025-3-13 9:20:53.875	WT901BLE68(490AABDC0D29)	0.090	-0.973	0.138	-22.583	9.949	38.025	-80.13	-6.98	-26.48	-23.422	48.118	41.944	0.72302	-0.61197	0.03882	-0.31793	27.3	13111	100
2025-3-13 9:20:53.926	WT901BLE68(E947F43FF2E9)	-0.475	1.070	-0.090	-16.541	62.683	233.093	92.04	16.06	75.00	55.076	-52.430	0.392	-0.58563	-0.52246	-0.49319	-0.37512	28.5	13111	100
2025-3-13 9:20:53.965	WT901BLE68(490AABDC0D29)	0.033	-0.973	0.128	-23.743	-4.395	31.128	-82.41	-3.76	-25.10	-23.422	48.118	41.944	0.72180	-0.66034	0.12900	-0.16193	27.3	13111	100
2025-3-13 9:20:54.56	WT901BLE68(E947F43FF2E9)	-1.629	1.723	-0.266	-13.733	-36.316	308.838	90.42	-12.71	77.16	55.076	-52.430	0.392	-0.58563	-0.52246	-0.49319	-0.37512	28.5	13111	100
2025-3-13 9:20:54.83	WT901BLE68(490AABDC0D29)	0.067	-0.989	0.081	-36.255	-4.883	36.743	-85.38	-0.80	-23.44	-23.422	48.118	41.944	0.72180	-0.66034	0.12900	-0.16193	27.3	13111	100
2025-3-13 9:20:54.137	WT901BLE68(E947F43FF2E9)	0.223	0.966	0.505	0.244	10.376	-23.560	96.48	-31.18	61.39	4.802	-64.092	-7.840	-0.58563	-0.52246	-0.49319	-0.37512	28.5	13111	100
2025-3-13 9:20:54.163	WT901BLE68(490AABDC0D29)	0.419	-1.074	0.019	-55.420	-2.747	77.515	-89.81	4.13	-22.15	-3.822	44.590	56.644	0.72180	-0.66034	0.12900	-0.16193	27.3	13111	100
2025-3-13 9:20:54.259	WT901BLE68(E947F43FF2E9)	0.007	0.749	0.062	-10.681	-73.425	-121.216	95.83	-18.85	56.17	4.802	-64.092	-7.840	-0.58563	-0.52246	-0.49319	-0.37512	28.5	13111	100
2025-3-13 9:20:54.265	WT901BLE68(490AABDC0D29)	-0.460	-1.682	0.056	-69.763	70.557	183.594	-96.24	16.08	-24.57	-3.822	44.590	56.644	0.72180	-0.66034	0.12900	-0.16193	27.3	13111	100
2025-3-13 9:20:54.361	WT901BLE68(E947F43FF2E9)	0.063	1.095	0.088	-8.850	-11.169	-26.306	95.89	-10.56	47.68	4.802	-64.092	-7.840	-0.59048	-0.69925	-0.24442	-0.32022	28.5	13111	100
2025-3-13 9:20:54.361	WT901BLE68(490AABDC0D29)	0.194	-0.782	0.015	-19.043	20.203	66.467	-105.08	26.05	-33.36	-3.822	44.590	56.644	0.67563	-0.67896	0.28708	-0.00293	27.3	13111	100
2025-3-13 9:20:54.469	WT901BLE68(E947F43FF2E9)	0.002	0.995	0.062	1.099	1.770	-20.203	95.51	-7.44	46.57	4.802	-64.092	-7.840	-0.59048	-0.69925	-0.24442	-0.32022	28.5	13111	100
2025-3-13 9:20:54.477	WT901BLE68(490AABDC0D29)	0.065	-0.556	-0.070	59.326	32.593	-102.417	-95.09	21.98	-25.26	-3.822	44.590	56.644	0.67563	-0.67896	0.28708	-0.00293	27.3	13111	100
2025-3-13 9:20:54.556	WT901BLE68(E947F43FF2E9)	-0.087	1.028	0.034	-4.944	-15.686	-34.546	94.70	-4.36	47.22	17.542	-63.014	-11.956	-0.59048	-0.69925	-0.24442	-0.32022	28.5	13111	100
2025-3-13 9:20:54.565	WT901BLE68(490AABDC0D29)	0.214	-1.023	-0.228	102.112	-0.793	-193.481	-86.37	4.99	-24.91	-16.562	36.260	52.136	0.67563	-0.67896	0.28708	-0.00293	27.3	13111	100
2025-3-13 9:20:54.676	WT901BLE68(E947F43FF2E9)	-0.149	1.006	0.064	-3.540	-12.756	-47.791	93.53	0.22	47.01	17.542	-63.014	-11.956	-0.59048	-0.69925	-0.24442	-0.32022	28.5	13111	100
2025-3-13 9:20:54.685	WT901BLE68(490AABDC0D29)	-1.546	-1.393	-0.255	81.116	13.428	-239.380	-77.30	-16.71	-27.86	-16.562	36.260	52.136	0.67563	-0.67896	0.28708	-0.00293	27.3	13111	100
2025-3-13 9:20:54.737	WT901BLE68(E947F43FF2E9)	-0.093	1.090	0.030	4.517	-8.301	-58.411	93.28	5.41	47.26	17.542	-63.014	-11.956	-0.64569	-0.64780	-0.32990	-0.23343	28.5	13111	100
2025-3-13 9:20:54.746	WT901BLE68(490AABDC0D29)	-0.950	-1.115	-0.580	-30.945	133.789	-8.972	-71.35	-27.67	-40.12	-16.562	36.260	52.136	0.71234	-0.61209	0.03049	-0.34189	27.3	13111	100
2025-3-13 9:20:54.862	WT901BLE68(E947F43FF2E9)	0.439	1.470	0.025	8.057	-4.333	-109.497	93.50	13.88	47.61	17.542	-63.014	-11.956	-0.64569	-0.64780	-0.32990	-0.23343	28.5	13111	100
2025-3-13 9:20:54.865	WT901BLE68(490AABDC0D29)	0.198	-1.635	-0.347	-61.218	-24.109	109.131	-76.32	-19.86	-33.37	-16.562	36.260	52.136	0.71234	-0.61209	0.03049	-0.34189	27.3	13111	100
2025-3-13 9:20:54.945	WT901BLE68(E947F43FF2E9)	0.601	1.425	0.077	9.827	100.525	-195.740	96.42	29.17	54.07	42.924	-53.018	-10.094	-0.64569	-0.64780	-0.32990	-0.23343	28.5	13111	100
2025-3-13 9:20:54.955	WT901BLE68(490AABDC0D29)	0.135	-0.974	0.136	-12.756	20.386	42.480	-78.20	-12.95	-30.72	-25.284	35.378	46.550	0.71234	-0.61209	0.03049	-0.34189	27.3	13111	100
2025-3-13 9:20:55.69	WT901BLE68(E947F43FF2E9)	-0.096	0.285	0.205	19.592	-75.317	118.103	99.03	34.51	57.45	42.924	-53.018	-10.094	-0.64569	-0.64780	-0.32990	-0.23343	28.5	13111	100
2025-3-13 9:20:55.75	WT901BLE68(490AABDC0D29)	0.122	-0.972	0.142	-17.761	0.671	38.269	-80.04	-8.17	-28.67	-25.284	35.378	46.550	0.71234	-0.61209	0.03049	-0.34189	27.3	13111	100
2025-3-13 9:20:55.156	WT901BLE68(E947F43FF2E9)	-0.960	1.114	-0.191	2.808	15.625	262.573	98.18	13.08	54.67	42.924	-53.018	-10.094	-0.58560	-0.67316	-0.34262	-0.29401	28.5	13111	100
2025-3-13 9:20:55.166	WT901BLE68(490AABDC0D29)	0.093	-0.971	0.131	-24.414	-5.981	33.142	-82.22	-4.92	-27.41	-25.284	35.378	46.550	0.71234	-0.61209	0.03049	-0.34189	27.3	13111	100
2025-3-13 9:20:55.278	WT901BLE68(E947F43FF2E9)	-1.002	1.573	-0.015	-11.047	-82.703	316.101	98.90	-15.72	50.03	42.924	-53.018	-10.094	-0.58560	-0.67316	-0.34262	-0.29401	28.5	13111	100
2025-3-13 9:20:55.285	WT901BLE68(490AABDC0D29)	0.128	-0.984	0.075	-35.583	-7.874	51.880	-85.07	-1.44	-25.65	-25.284	35.378	46.550	0.71652	-0.66113	0.14099	-0.17181	27.3	13111	100
2025-3-13 9:20:55.347	WT901BLE68(E947F43FF2E9)	0.039	1.476	-0.211	-18.982	90.759	-157.654	103.43	-25.17	39.05	6.468	-61.544	-9.800	-0.58560	-0.67316	-0.34262	-0.29401	28.5	13111	100
2025-3-13 9:20:55.374	WT901BLE68(490AABDC0D29)	0.090	-1.219	0.101	-55.298	-3.479	91.003	-89.28	4.67	-23.80	-9.408	34.790	56.644	0.71652	-0.66113	0.14099	-0.17181	27.3	13111	100
2025-3-13 9:20:55.458	WT901BLE68(E947F43FF2E9)	-0.058	0.885	0.278	-34.485	-41.199	-86.243	101.21	-11.43	33.61	6.468	-61.544	-9.800	-0.58560	-0.67316	-0.34262	-0.29401	28.5	13111	100
2025-3-13 9:20:55.494	WT901BLE68(490AABDC0D29)	-0.250	-1.399	0.139	-65.247	128.601	169.739	-95.37	16.16	-29.03	-9.408	34.790	56.644	0.71652	-0.66113	0.14099	-0.17181	27.3	13111	100
2025-3-13 9:20:55.551	WT901BLE68(E947F43FF2E9)	-0.122	1.025	0.039	-12.634	-6.714	-42.603	99.38	-3.55	29.03	6.468	-61.544	-9.800	-0.62604	-0.73837	-0.17834	-0.17590	28.5	13111	100
2025-3-13 9:20:55.556	WT901BLE68(490AABDC0D29)	0.114	-0.794	0.078	30.762	-117.554	55.969	-102.50	25.81	-36.44	-9.408	34.790	56.644	0.67667	-0.66147	0.32217	-0.02576	27.3	13111	100
2025-3-13 9:20:55.669	WT901BLE68(E947F43FF2E9)	-0.133	1.000	0.042	-8.911	3.784	-29.480	98.10	0.50	29.60	6.468	-61.544	-9.800	-0.62604	-0.73837	-0.17834	-0.17590	28.5	13111	100
2025-3-13 9:20:55.675	WT901BLE68(490AABDC0D29)	0.199	-0.650	-0.206	70.557	44.128	-102.783	-94.27	21.98	-30.52	-9.408	34.790	56.644	0.67667	-0.66147	0.32217	-0.02576	27.3	13111	100
2025-3-13 9:20:55.756	WT901BLE68(E947F43FF2E9)	-0.206	0.999	0.048	4.395	-11.169	-42.236	97.65	4.39	30.77	19.796	-60.760	-12.936	-0.62604	-0.73837	-0.17834	-0.17590	28.5	13111	100
