time	DeviceName	AccX(g)	AccY(g)	AccZ(g)	AsX(°/s)	AsY(°/s)	AsZ(°/s)	AngleX(°)	AngleY(°)	AngleZ(°)	HX(uT)	HY(uT)	HZ(uT)	Q0()	Q1()	Q2()	Q3()	Temperature(°C)	Version()	Battery level(%)
2025-3-17 11:6:58.880	WT901BLE68(E947F43FF2E9)	0.315	-0.875	-0.313	2.136	2.075	1.465	-110.48	-18.19	-47.82	-19.796	17.052	16.856	0.46246	-0.77679	0.24762	-0.34830	24.3	13111	100
2025-3-17 11:6:58.935	WT901BLE68(490AABDC0D29)	-0.290	-0.922	-0.192	-1.587	-0.427	0.610	-105.41	17.35	-2.53	9.996	38.318	48.020	0.59641	-0.78824	0.10754	0.10635	22.5	13111	100
2025-3-17 11:6:58.997	WT901BLE68(E947F43FF2E9)	0.323	-0.874	-0.299	-0.366	1.648	0.916	-110.23	-18.18	-48.22	-19.796	17.052	16.856	0.46246	-0.77679	0.24762	-0.34830	24.3	13111	100
2025-3-17 11:6:59.79	WT901BLE68(490AABDC0D29)	-0.295	-0.932	-0.189	-2.075	-1.526	-0.122	-105.40	17.36	-2.70	9.996	38.318	48.020	0.60168	-0.78391	0.11069	0.10544	22.5	13111	100
2025-3-17 11:6:59.117	WT901BLE68(E947F43FF2E9)	0.319	-0.884	-0.313	0.610	0.854	0.488	-110.21	-18.18	-48.41	-19.796	17.346	16.170	0.46246	-0.77679	0.24762	-0.34830	24.3	13111	100
2025-3-17 11:6:59.141	WT901BLE68(490AABDC0D29)	-0.286	-0.932	-0.194	-4.028	-1.221	1.038	-105.44	17.39	-2.83	9.996	38.318	48.020	0.60168	-0.78391	0.11069	0.10544	22.5	13111	100
2025-3-17 11:6:59.209	WT901BLE68(E947F43FF2E9)	0.330	-0.879	-0.321	-1.709	-1.526	-1.099	-110.26	-18.23	-48.61	-19.796	17.346	16.170	0.46246	-0.77679	0.24762	-0.34830	24.3	13111	100
2025-3-17 11:6:59.260	WT901BLE68(490AABDC0D29)	-0.295	-0.930	-0.188	-1.587	-2.502	0.061	-105.32	17.45	-2.79	10.094	38.416	48.020	0.60168	-0.78391	0.11069	0.10544	22.5	13111	100
2025-3-17 11:6:59.269	WT901BLE68(E947F43FF2E9)	0.324	-0.875	-0.298	-0.183	0.183	0.000	-110.26	-18.34	-48.69	-19.796	17.346	16.170	0.45920	-0.77570	0.25183	-0.35199	24.3	13111	100
2025-3-17 11:6:59.320	WT901BLE68(490AABDC0D29)	-0.292	-0.926	-0.189	-3.784	-1.404	0.549	-105.35	17.50	-2.86	10.094	38.416	48.020	0.60168	-0.78391	0.11069	0.10544	22.5	13111	100
2025-3-17 11:6:59.389	WT901BLE68(E947F43FF2E9)	0.332	-0.874	-0.323	-2.441	-1.160	0.000	-110.41	-18.35	-48.79	-19.796	17.346	16.170	0.45920	-0.77570	0.25183	-0.35199	24.3	13111	100
2025-3-17 11:6:59.471	WT901BLE68(490AABDC0D29)	-0.300	-0.930	-0.183	-2.136	-1.587	0.671	-105.33	17.55	-2.94	10.094	38.416	48.020	0.60187	-0.78336	0.11304	0.10583	22.5	13111	100
2025-3-17 11:6:59.478	WT901BLE68(E947F43FF2E9)	0.327	-0.875	-0.308	-0.305	-1.160	0.488	-110.45	-18.36	-48.87	-19.796	17.248	16.464	0.45920	-0.77570	0.25183	-0.35199	24.3	13111	100
2025-3-17 11:6:59.539	WT901BLE68(490AABDC0D29)	-0.285	-0.928	-0.199	-5.371	-3.479	-0.916	-105.44	17.56	-2.96	10.094	38.416	48.020	0.60187	-0.78336	0.11304	0.10583	22.5	13111	100
2025-3-17 11:6:59.599	WT901BLE68(E947F43FF2E9)	0.325	-0.876	-0.311	-0.732	-0.427	0.244	-110.51	-18.32	-48.88	-19.796	17.248	16.464	0.45920	-0.77570	0.25183	-0.35199	24.3	13111	100
2025-3-17 11:6:59.654	WT901BLE68(490AABDC0D29)	-0.290	-0.934	-0.196	-2.625	-8.789	-1.038	-105.52	17.59	-2.47	10.290	38.318	47.824	0.60187	-0.78336	0.11304	0.10583	22.5	13111	100
2025-3-17 11:6:59.687	WT901BLE68(E947F43FF2E9)	0.322	-0.875	-0.318	-0.793	-0.427	-0.793	-110.59	-18.39	-48.86	-19.796	17.248	16.464	0.45920	-0.77570	0.25183	-0.35199	24.3	13111	100
2025-3-17 11:6:59.770	WT901BLE68(490AABDC0D29)	-0.299	-0.926	-0.181	-2.319	-4.211	0.183	-105.24	17.68	-2.11	10.290	38.318	47.824	0.60187	-0.78336	0.11304	0.10583	22.5	13111	100
2025-3-17 11:6:59.807	WT901BLE68(E947F43FF2E9)	0.322	-0.877	-0.314	-0.061	-0.610	0.000	-110.58	-18.47	-48.92	-19.796	17.248	16.464	0.45691	-0.77637	0.25275	-0.35281	24.3	13111	100
2025-3-17 11:6:59.860	WT901BLE68(490AABDC0D29)	-0.293	-0.927	-0.181	-3.723	-2.136	0.488	-105.23	17.73	-2.08	10.290	38.318	47.824	0.60172	-0.78348	0.10690	0.11212	22.5	13111	100
2025-3-17 11:6:59.868	WT901BLE68(E947F43FF2E9)	0.320	-0.871	-0.321	0.549	-0.793	0.366	-110.56	-18.50	-48.97	-19.894	17.052	16.366	0.45691	-0.77637	0.25275	-0.35281	24.3	13111	100
2025-3-17 11:6:59.952	WT901BLE68(490AABDC0D29)	-0.285	-0.933	-0.184	-3.479	-2.625	-0.854	-105.25	17.71	-1.95	10.290	38.318	47.824	0.60172	-0.78348	0.10690	0.11212	22.5	13111	100
2025-3-17 11:7:0.5	WT901BLE68(E947F43FF2E9)	0.331	-0.884	-0.304	1.404	0.671	0.305	-110.37	-18.52	-49.11	-19.894	17.052	16.366	0.45691	-0.77637	0.25275	-0.35281	24.3	13111	100
2025-3-17 11:7:0.69	WT901BLE68(490AABDC0D29)	-0.276	-0.941	-0.202	-5.493	-0.916	0.488	-105.49	17.68	-2.05	10.290	38.318	47.824	0.60172	-0.78348	0.10690	0.11212	22.5	13111	100
2025-3-17 11:7:0.78	WT901BLE68(E947F43FF2E9)	0.320	-0.867	-0.310	0.549	1.221	-0.183	-110.26	-18.61	-49.22	-19.894	17.052	16.366	0.45782	-0.77298	0.25439	-0.35785	24.3	13111	100
2025-3-17 11:7:0.142	WT901BLE68(490AABDC0D29)	-0.319	-0.924	-0.195	0.549	1.648	1.160	-105.42	17.70	-2.25	10.192	38.318	47.824	0.60172	-0.78348	0.10690	0.11212	22.5	13111	100
2025-3-17 11:7:0.243	WT901BLE68(E947F43FF2E9)	0.320	-0.867	-0.307	1.160	2.686	1.160	-110.01	-18.68	-49.60	-19.894	17.052	16.366	0.45782	-0.77298	0.25439	-0.35785	24.3	13111	100
2025-3-17 11:7:0.251	WT901BLE68(490AABDC0D29)	-0.290	-0.922	-0.200	-4.028	-1.282	-0.732	-105.46	17.69	-2.62	10.192	38.318	47.824	0.60126	-0.78381	0.11035	0.10892	22.5	13111	100
2025-3-17 11:7:0.289	WT901BLE68(E947F43FF2E9)	0.321	-0.886	-0.301	0.366	0.610	0.610	-109.92	-18.69	-49.76	-19.992	17.248	16.072	0.45782	-0.77298	0.25439	-0.35785	24.3	13111	100
2025-3-17 11:7:0.339	WT901BLE68(490AABDC0D29)	-0.287	-0.924	-0.197	1.221	-0.793	-0.244	-105.31	17.65	-2.54	10.192	38.318	47.824	0.60126	-0.78381	0.11035	0.10892	22.5	13111	100
2025-3-17 11:7:0.409	WT901BLE68(E947F43FF2E9)	0.328	-0.881	-0.299	-0.977	0.000	0.488	-109.84	-18.65	-49.90	-19.992	17.248	16.072	0.45782	-0.77298	0.25439	-0.35785	24.3	13111	100
2025-3-17 11:7:0.461	WT901BLE68(490AABDC0D29)	-0.280	-0.932	-0.201	-2.991	-1.465	-0.916	-105.30	17.56	-2.65	9.996	38.416	48.020	0.60126	-0.78381	0.11035	0.10892	22.5	13111	100
2025-3-17 11:7:0.497	WT901BLE68(E947F43FF2E9)	0.314	-0.886	-0.309	-0.732	-0.244	0.671	-109.87	-18.62	-50.00	-19.992	17.248	16.072	0.45804	-0.76950	0.25894	-0.36179	24.3	13111	100
2025-3-17 11:7:0.549	WT901BLE68(490AABDC0D29)	-0.292	-0.935	-0.191	-1.526	3.174	1.282	-105.39	17.52	-2.87	9.996	38.416	48.020	0.60126	-0.78381	0.11035	0.10892	22.5	13111	100
2025-3-17 11:7:0.623	WT901BLE68(E947F43FF2E9)	0.330	-0.879	-0.289	0.183	4.456	1.953	-109.57	-18.64	-50.55	-19.992	17.248	16.072	0.45804	-0.76950	0.25894	-0.36179	24.3	13111	100
2025-3-17 11:7:0.672	WT901BLE68(490AABDC0D29)	-0.293	-0.931	-0.204	-2.563	1.160	1.038	-105.51	17.51	-3.27	9.996	38.416	48.020	0.60178	-0.78339	0.11615	0.10294	22.5	13111	100
2025-3-17 11:7:0.678	WT901BLE68(E947F43FF2E9)	0.359	-0.887	-0.302	-0.916	1.587	0.244	-109.54	-18.65	-50.82	-19.796	17.444	15.680	0.45804	-0.76950	0.25894	-0.36179	24.3	13111	100
2025-3-17 11:7:0.729	WT901BLE68(490AABDC0D29)	-0.283	-0.924	-0.191	-1.038	-1.221	0.000	-105.46	17.52	-3.50	9.996	38.416	48.020	0.60178	-0.78339	0.11615	0.10294	22.5	13111	100
2025-3-17 11:7:0.798	WT901BLE68(E947F43FF2E9)	0.319	-0.870	-0.286	-1.099	0.916	1.831	-109.51	-18.63	-50.92	-19.796	17.444	15.680	0.45804	-0.76950	0.25894	-0.36179	24.3	13111	100
2025-3-17 11:7:0.879	WT901BLE68(490AABDC0D29)	-0.289	-0.928	-0.187	-0.793	-3.418	-1.465	-105.28	17.46	-3.61	9.898	38.416	48.020	0.60178	-0.78339	0.11615	0.10294	22.5	13111	100
2025-3-17 11:7:0.887	WT901BLE68(E947F43FF2E9)	0.321	-0.881	-0.286	1.648	-0.610	0.916	-109.27	-18.58	-51.22	-19.796	17.444	15.680	0.45758	-0.76569	0.26459	-0.36636	24.3	13111	100
2025-3-17 11:7:0.939	WT901BLE68(490AABDC0D29)	-0.291	-0.915	-0.201	-2.686	-0.671	-1.709	-105.24	17.35	-3.42	9.898	38.416	48.020	0.60178	-0.78339	0.11615	0.10294	22.5	13111	100
2025-3-17 11:7:1.8	WT901BLE68(E947F43FF2E9)	0.326	-0.890	-0.290	-1.343	0.671	0.366	-109.27	-18.60	-51.39	-19.796	17.444	15.680	0.45758	-0.76569	0.26459	-0.36636	24.3	13111	100
2025-3-17 11:7:1.61	WT901BLE68(490AABDC0D29)	-0.290	-0.966	-0.197	-3.113	-3.540	-0.916	-105.23	17.31	-3.31	9.898	38.416	48.020	0.60385	-0.78229	0.11261	0.10297	22.5	13111	100
2025-3-17 11:7:1.97	WT901BLE68(E947F43FF2E9)	0.309	-0.892	-0.302	-4.028	-2.319	1.282	-109.53	-18.53	-51.28	-19.698	17.542	15.582	0.45758	-0.76569	0.26459	-0.36636	24.3	13111	100
2025-3-17 11:7:1.149	WT901BLE68(490AABDC0D29)	-0.272	-0.953	-0.184	0.671	-3.784	-1.831	-105.04	17.26	-3.05	9.898	38.416	48.020	0.60385	-0.78229	0.11261	0.10297	22.5	13111	100
2025-3-17 11:7:1.248	WT901BLE68(E947F43FF2E9)	0.317	-0.900	-0.316	1.404	-1.099	0.427	-109.67	-18.41	-51.23	-19.698	17.542	15.582	0.45758	-0.76569	0.26459	-0.36636	24.3	13111	100
2025-3-17 11:7:1.269	WT901BLE68(490AABDC0D29)	-0.253	-0.921	-0.177	-2.258	-4.761	-2.075	-104.80	17.15	-2.70	9.800	38.710	47.432	0.60385	-0.78229	0.11261	0.10297	22.5	13111	100
2025-3-17 11:7:1.279	WT901BLE68(E947F43FF2E9)	0.331	-0.881	-0.283	2.930	0.488	0.488	-109.35	-18.36	-51.23	-19.698	17.542	15.582	0.45972	-0.76474	0.26492	-0.36545	24.3	13111	100
2025-3-17 11:7:1.361	WT901BLE68(490AABDC0D29)	-0.299	-0.945	-0.174	-1.526	-2.258	1.160	-104.63	17.08	-2.40	9.800	38.710	47.432	0.60385	-0.78229	0.11261	0.10297	22.5	13111	100
2025-3-17 11:7:1.398	WT901BLE68(E947F43FF2E9)	0.303	-0.892	-0.288	0.183	0.732	0.061	-109.04	-18.39	-51.40	-19.698	17.542	15.582	0.45972	-0.76474	0.26492	-0.36545	24.3	13111	100
2025-3-17 11:7:1.480	WT901BLE68(490AABDC0D29)	-0.241	-0.937	-0.188	1.587	3.662	1.099	-104.40	17.13	-2.74	9.800	38.710	47.432	0.60959	-0.77832	0.11011	0.10196	22.5	13111	100
2025-3-17 11:7:1.489	WT901BLE68(E947F43FF2E9)	0.320	-0.881	-0.301	1.282	0.061	-0.305	-108.90	-18.53	-51.63	-19.698	17.640	15.288	0.45972	-0.76474	0.26492	-0.36545	24.3	13111	100
2025-3-17 11:7:1.538	WT901BLE68(490AABDC0D29)	-0.282	-0.924	-0.207	-2.747	-0.549	-1.770	-104.29	17.03	-2.83	9.800	38.710	47.432	0.60959	-0.77832	0.11011	0.10196	22.5	13111	100
2025-3-17 11:7:1.608	WT901BLE68(E947F43FF2E9)	0.324	-0.873	-0.297	0.488	-2.075	2.563	-108.78	-18.42	-51.55	-19.698	17.640	15.288	0.45972	-0.76474	0.26492	-0.36545	24.3	13111	100
2025-3-17 11:7:1.660	WT901BLE68(490AABDC0D29)	-0.237	-0.897	-0.159	-10.986	5.615	-1.526	-104.88	16.83	-3.37	9.016	38.710	48.902	0.60959	-0.77832	0.11011	0.10196	22.5	13111	100
2025-3-17 11:7:1.697	WT901BLE68(E947F43FF2E9)	0.224	-0.864	-0.299	-5.920	-20.264	9.521	-109.20	-17.63	-50.73	-19.698	17.640	15.288	0.46680	-0.76794	0.26443	-0.34973	24.3	13111	100
2025-3-17 11:7:1.749	WT901BLE68(490AABDC0D29)	-0.089	-1.069	-0.393	-42.542	10.498	-1.221	-108.12	16.00	-4.69	9.016	38.710	48.902	0.60959	-0.77832	0.11011	0.10196	22.5	13111	100
2025-3-17 11:7:1.828	WT901BLE68(E947F43FF2E9)	0.304	-0.878	-0.330	2.136	-2.258	1.648	-109.49	-16.86	-49.96	-19.698	17.640	15.288	0.46680	-0.76794	0.26443	-0.34973	24.3	13111	100
2025-3-17 11:7:1.871	WT901BLE68(490AABDC0D29)	-0.258	-0.867	-0.294	-5.737	13.855	-0.854	-109.46	15.63	-5.53	9.016	38.710	48.902	0.57748	-0.80338	0.12329	0.07608	22.5	13111	100
2025-3-17 11:7:1.907	WT901BLE68(E947F43FF2E9)	0.338	-0.917	-0.416	4.578	2.319	-1.648	-109.41	-16.81	-49.95	-18.914	18.130	15.680	0.46680	-0.76794	0.26443	-0.34973	24.3	13111	100
2025-3-17 11:7:1.960	WT901BLE68(490AABDC0D29)	-0.242	-0.949	-0.258	8.850	-5.371	6.104	-109.23	15.48	-6.49	9.016	38.710	48.902	0.57748	-0.80338	0.12329	0.07608	22.5	13111	100
2025-3-17 11:7:2.29	WT901BLE68(E947F43FF2E9)	0.355	-0.890	-0.240	3.052	10.315	1.465	-108.49	-17.23	-50.67	-18.914	18.130	15.680	0.46680	-0.76794	0.26443	-0.34973	24.3	13111	100
2025-3-17 11:7:2.81	WT901BLE68(490AABDC0D29)	-0.254	-0.920	-0.248	3.235	-3.296	5.432	-108.52	16.23	-6.08	9.310	38.318	50.470	0.57748	-0.80338	0.12329	0.07608	22.5	13111	100
2025-3-17 11:7:2.89	WT901BLE68(E947F43FF2E9)	0.332	-0.868	-0.303	2.563	7.813	6.104	-107.94	-17.35	-51.92	-18.914	18.130	15.680	0.47235	-0.75012	0.27768	-0.37006	24.3	13111	100
2025-3-17 11:7:2.139	WT901BLE68(490AABDC0D29)	-0.261	-0.960	-0.227	22.034	-12.329	-4.639	-106.72	16.47	-5.54	9.310	38.318	50.470	0.57748	-0.80338	0.12329	0.07608	22.5	13111	100
2025-3-17 11:7:2.208	WT901BLE68(E947F43FF2E9)	0.300	-0.874	-0.275	8.545	11.047	15.503	-106.81	-16.87	-53.50	-18.914	18.130	15.680	0.47235	-0.75012	0.27768	-0.37006	24.3	13111	100
2025-3-17 11:7:2.262	WT901BLE68(490AABDC0D29)	-0.227	-0.966	-0.157	22.583	-18.860	-15.686	-104.28	15.72	-4.82	9.310	38.318	50.470	0.57748	-0.80338	0.12329	0.07608	22.5	13111	100
2025-3-17 11:7:2.297	WT901BLE68(E947F43FF2E9)	0.182	-0.940	-0.229	8.667	20.264	27.954	-105.49	-15.15	-55.40	-15.876	21.070	11.564	0.47235	-0.75012	0.27768	-0.37006	24.3	13111	100
2025-3-17 11:7:2.351	WT901BLE68(490AABDC0D29)	-0.187	-0.933	-0.135	3.052	2.808	-22.034	-102.28	14.41	-3.61	9.310	38.318	50.470	0.62518	-0.76962	0.10300	0.07797	22.5	13111	100
2025-3-17 11:7:2.418	WT901BLE68(E947F43FF2E9)	0.165	-0.945	-0.239	9.827	10.193	33.386	-103.91	-12.63	-58.07	-15.876	21.070	11.564	0.47235	-0.75012	0.27768	-0.37006	24.3	13111	100
2025-3-17 11:7:2.471	WT901BLE68(490AABDC0D29)	-0.107	-0.970	-0.153	-8.057	4.028	-17.700	-102.19	12.31	-3.40	5.488	41.258	46.844	0.62518	-0.76962	0.10300	0.07797	22.5	13111	100
2025-3-17 11:7:2.507	WT901BLE68(E947F43FF2E9)	0.066	-0.960	-0.191	13.733	1.404	27.649	-102.40	-9.82	-59.17	-15.876	21.070	11.564	0.47235	-0.75012	0.27768	-0.37006	24.3	13111	100
2025-3-17 11:7:2.560	WT901BLE68(490AABDC0D29)	-0.132	-0.986	-0.148	-5.432	2.625	-12.085	-102.63	10.74	-3.64	5.488	41.258	46.844	0.62518	-0.76962	0.10300	0.07797	22.5	13111	100
2025-3-17 11:7:2.630	WT901BLE68(E947F43FF2E9)	0.117	-0.970	-0.167	8.057	6.165	27.588	-101.17	-7.33	-59.89	-15.876	21.070	11.564	0.52429	-0.68832	0.34967	-0.35910	24.3	13111	100
2025-3-17 11:7:2.681	WT901BLE68(490AABDC0D29)	-0.146	-0.967	-0.169	-9.583	-4.211	-9.766	-103.17	9.67	-4.23	5.488	41.258	46.844	0.61542	-0.78348	0.07587	0.03931	22.5	13111	100
2025-3-17 11:7:2.688	WT901BLE68(E947F43FF2E9)	-0.045	-0.978	-0.181	6.836	12.268	28.076	-100.26	-4.85	-61.08	-7.742	25.480	7.742	0.52429	-0.68832	0.34967	-0.35910	24.3	13111	100
2025-3-17 11:7:2.770	WT901BLE68(490AABDC0D29)	-0.133	-0.961	-0.183	-9.949	-11.658	-5.310	-104.12	8.87	-3.94	5.488	41.258	46.844	0.61542	-0.78348	0.07587	0.03931	22.5	13111	100
2025-3-17 11:7:2.807	WT901BLE68(E947F43FF2E9)	0.024	-1.000	-0.145	6.897	9.766	17.456	-99.49	-2.85	-62.24	-7.742	25.480	7.742	0.52429	-0.68832	0.34967	-0.35910	24.3	13111	100
2025-3-17 11:7:2.892	WT901BLE68(490AABDC0D29)	-0.074	-0.962	-0.131	0.122	6.104	-1.465	-104.24	8.59	-3.92	2.646	42.238	48.412	0.61542	-0.78348	0.07587	0.03931	22.5	13111	100
2025-3-17 11:7:2.899	WT901BLE68(E947F43FF2E9)	0.134	-1.079	-0.068	-4.700	36.743	-10.559	-99.26	-3.13	-63.56	-7.742	25.480	7.742	0.52652	-0.65369	0.39243	-0.37595	24.3	13111	100
2025-3-17 11:7:2.949	WT901BLE68(490AABDC0D29)	-0.172	-1.039	-0.184	-0.549	14.893	2.869	-103.97	7.62	-5.30	2.646	42.238	48.412	0.61542	-0.78348	0.07587	0.03931	22.5	13111	100
2025-3-17 11:7:3.18	WT901BLE68(E947F43FF2E9)	0.016	-0.829	-0.234	8.423	-4.089	-19.836	-99.31	-4.66	-65.69	-7.742	25.480	7.742	0.52652	-0.65369	0.39243	-0.37595	24.3	13111	100
2025-3-17 11:7:3.71	WT901BLE68(490AABDC0D29)	-0.004	-0.964	-0.191	1.831	15.564	5.249	-103.93	7.84	-6.62	2.646	42.238	48.412	0.61542	-0.78348	0.07587	0.03931	22.5	13111	100
2025-3-17 11:7:3.137	WT901BLE68(E947F43FF2E9)	0.020	-0.992	0.057	12.695	68.848	43.335	-98.67	-3.31	-70.98	-6.174	26.166	4.410	0.52652	-0.65369	0.39243	-0.37595	24.3	13111	100
2025-3-17 11:7:3.162	WT901BLE68(490AABDC0D29)	-0.149	-0.983	-0.250	2.136	3.784	3.479	-103.82	7.86	-7.41	2.646	42.238	48.412	0.61758	-0.78079	0.09293	0.01404	22.5	13111	100
2025-3-17 11:7:3.237	WT901BLE68(E947F43FF2E9)	0.102	-0.779	-0.720	-18.005	15.381	21.179	-97.84	-2.18	-69.96	-6.174	26.166	4.410	0.52652	-0.65369	0.39243	-0.37595	24.3	13111	100
2025-3-17 11:7:3.281	WT901BLE68(490AABDC0D29)	-0.195	-0.981	-0.135	10.925	-14.465	18.372	-102.54	9.13	-7.67	4.410	41.846	47.040	0.61758	-0.78079	0.09293	0.01404	22.5	13111	100
2025-3-17 11:7:3.317	WT901BLE68(E947F43FF2E9)	0.034	-0.949	-0.205	-15.137	-20.508	-4.639	-99.17	-1.94	-73.62	-6.174	26.166	4.410	0.52652	-0.65369	0.39243	-0.37595	24.3	13111	100
2025-3-17 11:7:3.372	WT901BLE68(490AABDC0D29)	-0.162	-0.968	-0.076	9.216	-41.138	-6.226	-100.70	9.89	-4.93	4.410	41.846	47.040	0.61758	-0.78079	0.09293	0.01404	22.5	13111	100
2025-3-17 11:7:3.439	WT901BLE68(E947F43FF2E9)	0.103	-0.981	-0.189	-19.897	-24.841	-10.620	-100.77	-2.30	-72.10	-6.174	26.166	4.410	0.50613	-0.63123	0.44235	-0.38678	24.3	13111	100
2025-3-17 11:7:3.492	WT901BLE68(490AABDC0D29)	-0.150	-0.966	-0.093	9.033	-30.273	-2.136	-99.00	10.10	-1.35	4.410	41.846	47.040	0.65189	-0.75327	0.04840	0.07224	22.5	13111	100
2025-3-17 11:7:3.499	WT901BLE68(E947F43FF2E9)	0.125	-0.975	-0.185	-16.541	-12.329	-11.658	-102.51	-3.05	-69.53	-7.448	25.578	8.820	0.50613	-0.63123	0.44235	-0.38678	24.3	13111	100
2025-3-17 11:7:3.548	WT901BLE68(490AABDC0D29)	-0.179	-0.981	-0.045	0.610	-29.358	-9.705	-98.06	9.84	1.51	4.410	41.846	47.040	0.65189	-0.75327	0.04840	0.07224	22.5	13111	100
2025-3-17 11:7:3.616	WT901BLE68(E947F43FF2E9)	0.047	-0.971	-0.224	-10.071	-18.127	-15.686	-103.80	-3.97	-67.42	-7.448	25.578	8.820	0.50613	-0.63123	0.44235	-0.38678	24.3	13111	100
2025-3-17 11:7:3.671	WT901BLE68(490AABDC0D29)	-0.092	-1.038	-0.054	1.160	-35.034	-12.024	-97.36	9.07	4.18	4.410	41.846	47.040	0.65189	-0.75327	0.04840	0.07224	22.5	13111	100
2025-3-17 11:7:3.707	WT901BLE68(E947F43FF2E9)	0.132	-0.989	-0.239	-1.465	-15.869	-11.108	-104.46	-4.63	-65.53	-7.448	25.578	8.820	0.49960	-0.68640	0.39212	-0.35406	24.3	13111	100
2025-3-17 11:7:3.759	WT901BLE68(490AABDC0D29)	-0.146	-0.966	-0.003	-7.751	-32.288	-10.803	-96.73	8.19	7.67	2.646	43.218	40.278	0.65189	-0.75327	0.04840	0.07224	22.5	13111	100
2025-3-17 11:7:3.836	WT901BLE68(E947F43FF2E9)	0.126	-0.918	-0.237	2.686	-18.982	-11.475	-104.52	-5.47	-63.42	-7.448	25.578	8.820	0.49960	-0.68640	0.39212	-0.35406	24.3	13111	100
2025-3-17 11:7:3.881	WT901BLE68(490AABDC0D29)	-0.093	-0.920	-0.069	-15.808	-42.297	-9.460	-97.14	7.64	10.85	2.646	43.218	40.278	0.65189	-0.75327	0.04840	0.07224	22.5	13111	100
2025-3-17 11:7:3.917	WT901BLE68(E947F43FF2E9)	0.122	-0.973	-0.227	-1.282	-12.634	-5.066	-104.61	-5.88	-61.50	-7.448	25.578	8.820	0.49960	-0.68640	0.39212	-0.35406	24.3	13111	100
2025-3-17 11:7:3.970	WT901BLE68(490AABDC0D29)	-0.084	-0.967	-0.010	-8.728	-7.813	-12.756	-97.76	6.87	12.35	2.646	43.218	40.278	0.64764	-0.75195	-0.04202	0.11508	22.5	13111	100
2025-3-17 11:7:4.39	WT901BLE68(E947F43FF2E9)	0.141	-0.948	-0.250	2.380	0.122	0.366	-104.67	-5.92	-60.28	-10.290	24.304	11.172	0.49960	-0.68640	0.39212	-0.35406	24.3	13111	100
2025-3-17 11:7:4.91	WT901BLE68(490AABDC0D29)	0.022	-0.983	-0.129	-10.986	2.625	-16.663	-98.28	5.38	11.04	-0.980	44.688	40.376	0.64764	-0.75195	-0.04202	0.11508	22.5	13111	100
2025-3-17 11:7:4.98	WT901BLE68(E947F43FF2E9)	0.115	-0.977	-0.212	7.813	6.042	0.732	-104.05	-6.00	-60.41	-10.290	24.304	11.172	0.49960	-0.68640	0.39212	-0.35406	24.3	13111	100
2025-3-17 11:7:4.181	WT901BLE68(490AABDC0D29)	-0.013	-0.985	-0.091	-10.437	4.700	-6.714	-99.00	3.83	10.23	-0.980	44.688	40.376	0.64764	-0.75195	-0.04202	0.11508	22.5	13111	100
2025-3-17 11:7:4.218	WT901BLE68(E947F43FF2E9)	0.077	-0.953	-0.203	11.414	6.287	5.249	-102.94	-5.91	-61.21	-10.290	24.304	11.172	0.51550	-0.68787	0.37030	-0.35190	24.3	13111	100
2025-3-17 11:7:4.301	WT901BLE68(490AABDC0D29)	-0.026	-0.987	-0.086	-12.390	11.597	5.676	-99.80	3.55	8.53	-0.980	44.688	40.376	0.63449	-0.76996	-0.02313	0.06287	22.5	13111	100
2025-3-17 11:7:4.308	WT901BLE68(E947F43FF2E9)	0.084	-0.963	-0.204	12.634	3.967	6.958	-101.74	-5.42	-61.79	-9.408	24.990	7.840	0.51550	-0.68787	0.37030	-0.35190	24.3	13111	100
2025-3-17 11:7:4.359	WT901BLE68(490AABDC0D29)	-0.044	-0.984	-0.124	-14.282	10.986	7.263	-100.85	3.88	6.55	-0.980	44.688	40.376	0.63449	-0.76996	-0.02313	0.06287	22.5	13111	100
2025-3-17 11:7:4.438	WT901BLE68(E947F43FF2E9)	0.086	-0.986	-0.165	15.320	4.761	4.517	-100.32	-4.97	-62.37	-9.408	24.990	7.840	0.51550	-0.68787	0.37030	-0.35190	24.3	13111	100
2025-3-17 11:7:4.481	WT901BLE68(490AABDC0D29)	-0.013	-0.967	-0.137	-15.808	9.521	5.554	-102.06	4.17	4.95	-0.980	44.688	40.376	0.63449	-0.76996	-0.02313	0.06287	22.5	13111	100
2025-3-17 11:7:4.517	WT901BLE68(E947F43FF2E9)	0.077	-0.985	-0.143	15.320	9.949	7.385	-98.76	-4.52	-63.52	-9.408	24.990	7.840	0.54123	-0.64401	0.38699	-0.37744	24.3	13111	100
2025-3-17 11:7:4.615	WT901BLE68(490AABDC0D29)	0.000	-0.993	-0.203	-9.460	14.587	10.498	-103.39	4.55	3.49	-0.196	44.100	44.590	0.63449	-0.76996	-0.02313	0.06287	22.5	13111	100
2025-3-17 11:7:4.639	WT901BLE68(E947F43FF2E9)	0.053	-0.995	-0.104	10.315	15.259	11.780	-97.38	-3.81	-65.50	-9.408	24.990	7.840	0.54123	-0.64401	0.38699	-0.37744	24.3	13111	100
2025-3-17 11:7:4.690	WT901BLE68(490AABDC0D29)	-0.098	-0.973	-0.223	-7.019	9.766	7.446	-104.33	5.08	1.98	-0.196	44.100	44.590	0.63449	-0.76996	-0.02313	0.06287	22.5	13111	100
2025-3-17 11:7:4.741	WT901BLE68(E947F43FF2E9)	0.013	-0.967	-0.169	3.662	21.301	7.996	-96.50	-3.07	-68.26	-9.408	24.990	7.840	0.54123	-0.64401	0.38699	-0.37744	24.3	13111	100
2025-3-17 11:7:4.781	WT901BLE68(490AABDC0D29)	-0.090	-0.993	-0.176	-6.409	12.634	4.395	-104.89	5.26	0.49	-0.196	44.100	44.590	0.60840	-0.79224	0.02560	0.03815	22.5	13111	100
2025-3-17 11:7:4.848	WT901BLE68(E947F43FF2E9)	0.181	-1.042	0.080	2.625	-3.967	-6.653	-96.09	-3.18	-70.15	-7.154	25.970	3.038	0.54123	-0.64401	0.38699	-0.37744	24.3	13111	100
2025-3-17 11:7:4.901	WT901BLE68(490AABDC0D29)	-0.051	-0.971	-0.204	-5.981	14.221	2.441	-105.44	5.10	-1.27	0.588	43.218	47.530	0.60840	-0.79224	0.02560	0.03815	22.5	13111	100
2025-3-17 11:7:4.908	WT901BLE68(E947F43FF2E9)	-0.086	-0.926	-0.063	-3.235	-13.672	1.099	-96.02	-2.83	-67.42	-7.154	25.970	3.038	0.54123	-0.64401	0.38699	-0.37744	24.3	13111	100
2025-3-17 11:7:4.960	WT901BLE68(490AABDC0D29)	-0.110	-0.977	-0.233	-0.916	15.869	9.033	-105.76	5.13	-3.05	0.588	43.218	47.530	0.60840	-0.79224	0.02560	0.03815	22.5	13111	100
2025-3-17 11:7:5.26	WT901BLE68(E947F43FF2E9)	-0.036	-0.993	-0.108	-1.892	156.738	61.707	-95.97	-0.34	-75.14	-7.154	25.970	3.038	0.52197	-0.57568	0.46954	-0.41895	24.3	13111	100
2025-3-17 11:7:5.79	WT901BLE68(490AABDC0D29)	-0.109	-0.959	-0.194	4.639	15.503	11.841	-105.45	5.72	-5.18	0.588	43.218	47.530	0.60840	-0.79224	0.02560	0.03815	22.5	13111	100
2025-3-17 11:7:5.125	WT901BLE68(E947F43FF2E9)	0.381	-0.930	-0.140	-2.380	167.725	72.205	-96.87	5.13	-96.10	7.056	28.126	-1.078	0.52197	-0.57568	0.46954	-0.41895	24.3	13111	100
2025-3-17 11:7:5.170	WT901BLE68(490AABDC0D29)	-0.120	-0.982	-0.175	9.705	8.667	8.667	-104.54	6.30	-6.48	0.588	43.218	47.530	0.61243	-0.78653	0.07816	0.00885	22.5	13111	100
2025-3-17 11:7:5.237	WT901BLE68(E947F43FF2E9)	-0.176	-1.069	0.072	8.545	90.942	-2.686	-98.64	6.77	-115.62	7.056	28.126	-1.078	0.52197	-0.57568	0.46954	-0.41895	24.3	13111	100
2025-3-17 11:7:5.289	WT901BLE68(490AABDC0D29)	-0.100	-0.991	-0.179	20.203	7.324	9.094	-102.89	6.98	-7.20	0.588	43.218	47.530	0.61243	-0.78653	0.07816	0.00885	22.5	13111	100
2025-3-17 11:7:5.326	WT901BLE68(E947F43FF2E9)	-0.061	-1.051	0.244	2.136	4.333	-5.676	-100.29	5.55	-124.80	7.056	28.126	-1.078	0.52197	-0.57568	0.46954	-0.41895	24.3	13111	100
2025-3-17 11:7:5.380	WT901BLE68(490AABDC0D29)	-0.052	-1.023	-0.149	32.837	-4.150	7.446	-100.25	7.60	-7.17	3.038	42.728	44.982	0.61243	-0.78653	0.07816	0.00885	22.5	13111	100
2025-3-17 11:7:5.449	WT901BLE68(E947F43FF2E9)	-0.065	-0.942	-0.413	-6.348	-8.179	-18.005	-101.52	3.78	-127.64	7.056	28.126	-1.078	0.30179	-0.32275	0.70386	-0.55606	24.3	13111	100
2025-3-17 11:7:5.499	WT901BLE68(490AABDC0D29)	0.072	-1.050	-0.031	47.424	1.282	28.320	-96.21	9.01	-6.69	3.038	42.728	44.982	0.69299	-0.71078	0.11472	0.03540	22.5	13111	100
2025-3-17 11:7:5.507	WT901BLE68(E947F43FF2E9)	-0.027	-0.983	-0.125	-26.306	2.563	-16.235	-102.78	2.09	-133.10	7.056	28.126	-1.078	0.30179	-0.32275	0.70386	-0.55606	24.3	13111	100
2025-3-17 11:7:5.591	WT901BLE68(490AABDC0D29)	-0.420	-1.296	-0.039	61.035	-10.559	62.622	-91.26	12.86	-6.44	3.038	42.728	44.982	0.69299	-0.71078	0.11472	0.03540	22.5	13111	100
2025-3-17 11:7:5.627	WT901BLE68(E947F43FF2E9)	0.055	-0.928	-0.293	-29.907	27.283	-14.587	-105.61	0.21	-138.09	4.018	28.224	3.724	0.30179	-0.32275	0.70386	-0.55606	24.3	13111	100
2025-3-17 11:7:5.712	WT901BLE68(490AABDC0D29)	0.134	-1.075	-0.111	63.171	33.508	66.101	-85.71	18.84	-6.71	16.856	34.104	36.260	0.69299	-0.71078	0.11472	0.03540	22.5	13111	100
2025-3-17 11:7:5.726	WT901BLE68(E947F43FF2E9)	0.092	-0.969	-0.358	-23.376	39.246	-13.062	-108.23	-2.26	-146.05	4.018	28.224	3.724	0.30179	-0.32275	0.70386	-0.55606	24.3	13111	100
2025-3-17 11:7:5.771	WT901BLE68(490AABDC0D29)	0.095	-0.578	-0.512	30.518	266.968	47.363	-85.20	25.75	-18.50	16.856	34.104	36.260	0.69299	-0.71078	0.11472	0.03540	22.5	13111	100
2025-3-17 11:7:5.836	WT901BLE68(E947F43FF2E9)	0.054	-0.943	-0.292	-8.728	41.260	-5.066	-109.36	-4.33	-153.80	4.018	28.224	3.724	0.08984	-0.19635	0.79205	-0.57089	24.3	13111	100
2025-3-17 11:7:5.888	WT901BLE68(490AABDC0D29)	-0.588	-0.631	-0.570	40.833	254.150	-71.716	-94.41	22.42	-42.99	16.856	34.104	36.260	0.69299	-0.71078	0.11472	0.03540	22.5	13111	100
2025-3-17 11:7:5.929	WT901BLE68(E947F43FF2E9)	0.055	-0.915	-0.336	-10.925	14.526	-0.305	-109.96	-5.67	-161.32	1.176	27.832	7.154	0.08984	-0.19635	0.79205	-0.57089	24.3	13111	100
2025-3-17 11:7:5.980	WT901BLE68(490AABDC0D29)	-0.599	-2.235	-1.760	12.878	260.803	-140.259	-99.17	6.28	-65.28	16.856	34.104	36.260	0.56088	-0.62085	0.44153	-0.32385	22.5	13111	100
2025-3-17 11:7:6.47	WT901BLE68(E947F43FF2E9)	0.158	-0.913	-0.395	-0.366	10.071	-16.357	-110.28	-6.69	-166.47	1.176	27.832	7.154	0.08984	-0.19635	0.79205	-0.57089	24.3	13111	100
2025-3-17 11:7:6.101	WT901BLE68(490AABDC0D29)	-0.635	-1.098	-0.739	-46.875	60.181	-171.448	-102.14	-11.92	-77.25	16.856	34.104	36.260	0.56088	-0.62085	0.44153	-0.32385	22.5	13111	100
2025-3-17 11:7:6.168	WT901BLE68(E947F43FF2E9)	0.220	-0.909	-0.339	2.197	29.480	-30.334	-110.03	-9.70	-170.43	1.176	27.832	7.154	0.08984	-0.19635	0.79205	-0.57089	24.3	13111	100
2025-3-17 11:7:6.191	WT901BLE68(490AABDC0D29)	1.048	-1.206	0.002	-64.087	22.400	-105.652	-111.27	-25.18	-72.02	-26.264	36.750	70.168	0.56088	-0.62085	0.44153	-0.32385	22.5	13111	100
2025-3-17 11:7:6.259	WT901BLE68(E947F43FF2E9)	0.199	-0.958	-0.256	-2.747	31.494	-35.706	-109.56	-13.72	-175.20	1.176	27.832	7.154	-0.07596	-0.10242	0.80734	-0.57605	24.3	13111	100
2025-3-17 11:7:6.311	WT901BLE68(490AABDC0D29)	0.034	-1.077	-0.017	-15.381	76.721	80.505	-112.40	-22.60	-76.78	-26.264	36.750	70.168	0.35593	-0.67523	0.46017	-0.45334	22.5	13111	100
2025-3-17 11:7:6.328	WT901BLE68(E947F43FF2E9)	0.039	-1.054	-0.398	-3.601	45.593	-50.232	-109.28	-18.30	-177.91	1.176	27.832	7.154	-0.07596	-0.10242	0.80734	-0.57605	24.3	13111	100
2025-3-17 11:7:6.369	WT901BLE68(490AABDC0D29)	0.069	-1.233	-0.396	-20.325	36.255	80.322	-110.47	-15.79	-80.39	-26.264	36.750	70.168	0.35593	-0.67523	0.46017	-0.45334	22.5	13111	100
2025-3-17 11:7:6.437	WT901BLE68(E947F43FF2E9)	0.768	-1.361	-0.150	-30.090	96.069	-99.182	-109.35	-26.64	-178.08	-11.956	24.010	4.410	-0.07596	-0.10242	0.80734	-0.57605	24.3	13111	100
2025-3-17 11:7:6.489	WT901BLE68(490AABDC0D29)	-0.048	-0.958	-0.333	1.526	-51.575	61.646	-110.57	-7.43	-79.40	-26.264	36.750	70.168	0.35593	-0.67523	0.46017	-0.45334	22.5	13111	100
2025-3-17 11:7:6.531	WT901BLE68(E947F43FF2E9)	-0.226	-1.038	-0.250	-31.860	87.097	-127.441	-111.38	-40.37	-178.52	-11.956	24.010	4.410	-0.07596	-0.10242	0.80734	-0.57605	24.3	13111	100
2025-3-17 11:7:6.578	WT901BLE68(490AABDC0D29)	-0.087	-0.931	-0.363	-2.136	-6.592	41.077	-110.86	-1.83	-76.73	-21.266	36.652	71.638	0.35593	-0.67523	0.46017	-0.45334	22.5	13111	100
2025-3-17 11:7:6.647	WT901BLE68(E947F43FF2E9)	-0.189	-0.432	0.092	-44.495	114.746	79.346	-109.26	-44.97	174.02	-11.956	24.010	4.410	-0.33691	-0.15665	0.76559	-0.52505	24.3	13111	100
2025-3-17 11:7:6.699	WT901BLE68(490AABDC0D29)	-0.078	-0.942	-0.310	-8.850	-5.249	24.475	-111.10	1.36	-73.32	-21.266	36.652	71.638	0.35593	-0.67523	0.46017	-0.45334	22.5	13111	100
2025-3-17 11:7:6.744	WT901BLE68(E947F43FF2E9)	0.153	-0.701	-0.016	-36.194	47.668	250.183	-103.89	-28.21	163.56	-11.956	24.010	4.410	-0.33691	-0.15665	0.76559	-0.52505	24.3	13111	100
2025-3-17 11:7:6.791	WT901BLE68(490AABDC0D29)	-0.017	-0.950	-0.286	-7.324	-35.278	9.521	-111.68	3.83	-68.09	-21.266	36.652	71.638	0.48148	-0.67557	0.47742	-0.28940	22.5	13111	100
2025-3-17 11:7:6.858	WT901BLE68(E947F43FF2E9)	1.127	-1.616	-0.379	-82.703	-32.654	270.142	-108.44	-0.35	158.63	14.112	27.832	1.568	-0.33691	-0.15665	0.76559	-0.52505	24.3	13111	100
2025-3-17 11:7:6.910	WT901BLE68(490AABDC0D29)	-0.134	-0.977	-0.344	18.982	-38.391	26.367	-110.78	6.66	-62.70	-21.266	36.652	71.638	0.48148	-0.67557	0.47742	-0.28940	22.5	13111	100
2025-3-17 11:7:6.949	WT901BLE68(E947F43FF2E9)	-2.444	-1.362	-0.247	-56.641	19.836	191.284	-117.74	22.35	148.37	14.112	27.832	1.568	-0.33691	-0.15665	0.76559	-0.52505	24.3	13111	100
2025-3-17 11:7:7.1	WT901BLE68(490AABDC0D29)	0.341	-1.088	-0.209	49.438	-38.391	90.027	-106.56	13.07	-58.30	-7.448	37.632	68.698	0.48148	-0.67557	0.47742	-0.28940	22.5	13111	100
2025-3-17 11:7:7.37	WT901BLE68(E947F43FF2E9)	0.197	-1.449	0.149	0.854	-125.427	-127.197	-120.11	18.70	146.96	14.112	27.832	1.568	-0.00253	0.31070	0.79849	-0.51550	24.3	13111	100
2025-3-17 11:7:7.131	WT901BLE68(490AABDC0D29)	0.323	-1.740	-0.519	65.491	-69.946	152.710	-99.85	23.94	-52.46	-7.448	37.632	68.698	0.69101	-0.53024	0.49026	-0.02960	22.5	13111	100
2025-3-17 11:7:7.132	WT901BLE68(E947F43FF2E9)	-0.134	-1.237	-0.771	-29.846	-60.791	-96.680	-115.67	13.60	159.16	14.112	27.832	1.568	-0.00253	0.31070	0.79849	-0.51550	24.3	13111	100
2025-3-17 11:7:7.181	WT901BLE68(490AABDC0D29)	0.360	-0.860	-0.629	22.766	92.468	192.688	-93.50	41.06	-47.76	-7.448	37.632	68.698	0.69101	-0.53024	0.49026	-0.02960	22.5	13111	100
2025-3-17 11:7:7.247	WT901BLE68(E947F43FF2E9)	-0.040	-0.993	-0.338	-0.549	26.367	-39.978	-115.73	6.04	155.46	19.992	28.028	4.018	-0.00253	0.31070	0.79849	-0.51550	24.3	13111	100
2025-3-17 11:7:7.300	WT901BLE68(490AABDC0D29)	0.042	0.045	-0.272	24.231	60.486	-118.103	-98.85	44.82	-54.75	-7.448	37.632	68.698	0.69101	-0.53024	0.49026	-0.02960	22.5	13111	100
2025-3-17 11:7:7.337	WT901BLE68(E947F43FF2E9)	0.091	-0.950	-0.272	9.033	35.522	-33.997	-114.79	1.29	152.00	19.992	28.028	4.018	-0.00253	0.31070	0.79849	-0.51550	24.3	13111	100
2025-3-17 11:7:7.391	WT901BLE68(490AABDC0D29)	-0.350	-0.638	-0.245	4.150	63.293	-292.908	-98.57	21.17	-53.71	5.390	34.398	66.150	0.69101	-0.53024	0.49026	-0.02960	22.5	13111	100
2025-3-17 11:7:7.457	WT901BLE68(E947F43FF2E9)	0.018	-0.979	-0.219	5.981	20.386	-36.926	-113.57	-3.03	148.70	19.992	28.028	4.018	-0.18170	0.21213	0.80737	-0.51962	24.3	13111	100
2025-3-17 11:7:7.509	WT901BLE68(490AABDC0D29)	-1.556	-2.184	-0.626	-75.073	98.755	-315.002	-101.69	-12.65	-50.27	5.390	34.398	66.150	0.69101	-0.53024	0.49026	-0.02960	22.5	13111	100
2025-3-17 11:7:7.546	WT901BLE68(E947F43FF2E9)	0.192	-0.999	-0.271	11.963	35.645	-53.894	-112.01	-8.28	145.27	19.992	28.028	4.018	-0.18170	0.21213	0.80737	-0.51962	24.3	13111	100
2025-3-17 11:7:7.599	WT901BLE68(490AABDC0D29)	0.324	-1.319	-0.109	-20.752	65.063	12.085	-105.43	-29.31	-54.59	5.390	34.398	66.150	0.42804	-0.75220	0.22260	-0.44870	22.5	13111	100
2025-3-17 11:7:7.668	WT901BLE68(E947F43FF2E9)	-0.209	-1.079	-0.403	24.780	29.968	-92.651	-109.64	-16.17	143.26	5.194	29.302	1.372	-0.18170	0.21213	0.80737	-0.51962	24.3	13111	100
2025-3-17 11:7:7.721	WT901BLE68(490AABDC0D29)	-0.000	-1.444	-0.162	-8.484	-10.010	105.408	-102.57	-18.95	-61.65	5.390	34.398	66.150	0.42804	-0.75220	0.22260	-0.44870	22.5	13111	100
2025-3-17 11:7:7.733	WT901BLE68(E947F43FF2E9)	0.658	-1.544	-0.694	-0.427	84.656	-164.551	-106.72	-28.77	142.92	5.194	29.302	1.372	-0.18170	0.21213	0.80737	-0.51962	24.3	13111	100
2025-3-17 11:7:7.780	WT901BLE68(490AABDC0D29)	0.088	-0.923	-0.240	-22.888	-18.860	51.208	-104.22	-9.71	-61.42	-31.360	37.730	67.718	0.42804	-0.75220	0.22260	-0.44870	22.5	13111	100
2025-3-17 11:7:7.846	WT901BLE68(E947F43FF2E9)	-0.260	-0.613	-0.180	-59.143	145.752	-98.938	-108.31	-45.60	141.54	5.194	29.302	1.372	-0.48962	0.02972	0.77625	-0.39587	24.3	13111	100
2025-3-17 11:7:7.899	WT901BLE68(490AABDC0D29)	0.026	-1.028	-0.271	-16.785	-12.756	28.442	-105.75	-5.60	-59.61	-31.360	37.730	67.718	0.42804	-0.75220	0.22260	-0.44870	22.5	13111	100
2025-3-17 11:7:7.938	WT901BLE68(E947F43FF2E9)	0.055	-0.284	0.113	-77.087	-15.076	120.178	-107.52	-45.85	133.87	5.194	29.302	1.372	-0.48962	0.02972	0.77625	-0.39587	24.3	13111	100
2025-3-17 11:7:7.991	WT901BLE68(490AABDC0D29)	-0.042	-0.945	-0.314	10.132	-41.321	29.358	-106.21	-1.80	-55.76	-31.360	37.730	67.718	0.52466	-0.71118	0.36560	-0.29181	22.5	13111	100
2025-3-17 11:7:8.56	WT901BLE68(E947F43FF2E9)	0.411	-1.292	-0.029	-82.275	-29.846	286.133	-117.14	-22.38	137.76	1.764	28.518	4.214	-0.48962	0.02972	0.77625	-0.39587	24.3	13111	100
2025-3-17 11:7:8.109	WT901BLE68(490AABDC0D29)	-0.028	-0.979	-0.231	19.348	-1.953	48.462	-104.60	2.69	-52.74	-31.360	37.730	67.718	0.52466	-0.71118	0.36560	-0.29181	22.5	13111	100
2025-3-17 11:7:8.148	WT901BLE68(E947F43FF2E9)	1.567	-1.853	-0.208	-86.365	54.749	336.548	-122.17	3.41	117.94	1.764	28.518	4.214	-0.48962	0.02972	0.77625	-0.39587	24.3	13111	100
2025-3-17 11:7:8.201	WT901BLE68(490AABDC0D29)	-0.067	-1.016	-0.189	23.865	-15.259	54.810	-102.47	7.43	-51.28	-18.424	40.376	67.032	0.52466	-0.71118	0.36560	-0.29181	22.5	13111	100
2025-3-17 11:7:8.266	WT901BLE68(E947F43FF2E9)	0.366	-0.971	0.000	16.235	20.142	-31.738	-128.24	16.24	101.33	1.764	28.518	4.214	-0.20096	0.59515	0.66159	-0.40936	24.3	13111	100
2025-3-17 11:7:8.319	WT901BLE68(490AABDC0D29)	0.574	-1.224	-0.254	43.640	-27.588	98.083	-99.04	15.25	-48.78	-18.424	40.376	67.032	0.52466	-0.71118	0.36560	-0.29181	22.5	13111	100
2025-3-17 11:7:8.336	WT901BLE68(E947F43FF2E9)	0.137	-1.665	0.028	20.874	-90.027	-116.699	-123.00	9.80	108.78	1.764	28.518	4.214	-0.20096	0.59515	0.66159	-0.40936	24.3	13111	100
2025-3-17 11:7:8.411	WT901BLE68(490AABDC0D29)	-0.408	-1.892	-0.579	68.787	-38.635	187.195	-91.55	28.60	-44.29	-18.424	40.376	67.032	0.70203	-0.56494	0.42749	-0.07184	22.5	13111	100
2025-3-17 11:7:8.478	WT901BLE68(E947F43FF2E9)	-0.042	-0.839	-0.473	-1.282	27.283	-66.101	-121.05	3.81	114.18	32.046	23.226	12.250	-0.20096	0.59515	0.66159	-0.40936	24.3	13111	100
2025-3-17 11:7:8.534	WT901BLE68(490AABDC0D29)	-0.168	-0.732	-0.129	15.686	21.484	180.298	-88.01	45.72	-41.13	-18.424	40.376	67.032	0.70203	-0.56494	0.42749	-0.07184	22.5	13111	100
2025-3-17 11:7:8.538	WT901BLE68(E947F43FF2E9)	-0.108	-0.972	-0.407	-2.625	3.113	-24.658	-120.39	-1.33	112.35	32.046	23.226	12.250	-0.20096	0.59515	0.66159	-0.40936	24.3	13111	100
2025-3-17 11:7:8.593	WT901BLE68(490AABDC0D29)	-0.065	-0.088	-0.424	36.865	116.577	-174.072	-92.47	39.24	-50.55	7.448	36.848	59.976	0.70203	-0.56494	0.42749	-0.07184	22.5	13111	100
2025-3-17 11:7:8.657	WT901BLE68(E947F43FF2E9)	-0.011	-0.915	-0.344	10.742	62.988	-21.301	-119.20	-4.74	108.38	32.046	23.226	12.250	-0.33630	0.48926	0.70691	-0.38428	24.3	13111	100
2025-3-17 11:7:8.710	WT901BLE68(490AABDC0D29)	-1.052	-0.889	-0.559	23.071	115.784	-294.067	-95.17	12.75	-58.34	7.448	36.848	59.976	0.70203	-0.56494	0.42749	-0.07184	22.5	13111	100
2025-3-17 11:7:8.749	WT901BLE68(E947F43FF2E9)	0.047	-0.946	-0.316	18.311	33.630	-41.260	-116.57	-9.24	104.33	32.046	23.226	12.250	-0.33630	0.48926	0.70691	-0.38428	24.3	13111	100
2025-3-17 11:7:8.801	WT901BLE68(490AABDC0D29)	-1.027	-2.271	-0.516	-80.994	146.729	-256.592	-100.31	-19.18	-64.23	7.448	36.848	59.976	0.45782	-0.70038	0.30914	-0.45184	22.5	13111	100
2025-3-17 11:7:8.868	WT901BLE68(E947F43FF2E9)	0.191	-0.976	-0.344	14.465	34.119	-57.678	-114.12	-14.57	102.12	18.228	28.420	12.544	-0.33630	0.48926	0.70691	-0.38428	24.3	13111	100
2025-3-17 11:7:8.919	WT901BLE68(490AABDC0D29)	0.058	-1.290	0.071	-16.052	106.445	100.464	-102.77	-28.44	-73.25	7.448	36.848	59.976	0.45782	-0.70038	0.30914	-0.45184	22.5	13111	100
2025-3-17 11:7:8.960	WT901BLE68(E947F43FF2E9)	-0.192	-1.209	-0.472	14.221	46.997	-104.065	-112.14	-22.69	100.98	18.228	28.420	12.544	-0.33630	0.48926	0.70691	-0.38428	24.3	13111	100
2025-3-17 11:7:9.11	WT901BLE68(490AABDC0D29)	0.023	-1.115	-0.202	-0.977	2.808	79.468	-100.15	-17.80	-79.11	-44.884	36.652	55.468	0.45782	-0.70038	0.30914	-0.45184	22.5	13111	100
2025-3-17 11:7:9.76	WT901BLE68(E947F43FF2E9)	0.901	-1.710	-0.576	-21.667	119.568	-188.782	-109.34	-38.11	95.25	18.228	28.420	12.544	-0.60205	0.36731	0.68951	-0.16452	24.3	13111	100
2025-3-17 11:7:9.142	WT901BLE68(490AABDC0D29)	0.068	-0.923	-0.385	-6.653	-28.748	41.687	-101.65	-9.58	-78.95	-44.884	36.652	55.468	0.45782	-0.70038	0.30914	-0.45184	22.5	13111	100
2025-3-17 11:7:9.143	WT901BLE68(E947F43FF2E9)	-0.285	-0.430	-0.256	-71.899	129.639	-85.266	-104.00	-55.14	76.67	18.228	28.420	12.544	-0.60205	0.36731	0.68951	-0.16452	24.3	13111	100
2025-3-17 11:7:9.190	WT901BLE68(490AABDC0D29)	0.035	-0.986	-0.248	-15.015	12.817	31.677	-103.21	-5.42	-77.01	-44.884	36.652	55.468	0.46402	-0.63007	0.46774	-0.41083	22.5	13111	100
2025-3-17 11:7:9.257	WT901BLE68(E947F43FF2E9)	0.003	-0.270	0.142	-78.247	-52.979	166.138	-95.70	-47.26	54.72	-9.114	24.990	12.838	-0.60205	0.36731	0.68951	-0.16452	24.3	13111	100
2025-3-17 11:7:9.341	WT901BLE68(490AABDC0D29)	0.036	-0.961	-0.208	7.690	-41.382	28.198	-103.43	-2.10	-74.06	-44.884	36.652	55.468	0.46402	-0.63007	0.46774	-0.41083	22.5	13111	100
2025-3-17 11:7:9.349	WT901BLE68(E947F43FF2E9)	1.148	-1.428	-0.004	-81.055	56.152	328.430	-100.07	-18.31	46.02	-9.114	24.990	12.838	-0.60205	0.36731	0.68951	-0.16452	24.3	13111	100
2025-3-17 11:7:9.401	WT901BLE68(490AABDC0D29)	-0.074	-0.979	-0.226	20.142	-8.423	47.974	-102.11	2.25	-70.73	-29.792	43.806	55.860	0.46402	-0.63007	0.46774	-0.41083	22.5	13111	100
2025-3-17 11:7:9.498	WT901BLE68(E947F43FF2E9)	0.500	-1.888	0.055	-77.271	-20.569	279.358	-107.15	12.28	32.91	-9.114	24.990	12.838	-0.52295	0.79297	0.14355	-0.27747	24.3	13111	100
2025-3-17 11:7:9.552	WT901BLE68(490AABDC0D29)	0.035	-1.089	-0.117	23.621	-14.954	83.252	-99.84	8.32	-68.84	-29.792	43.806	55.860	0.46402	-0.63007	0.46774	-0.41083	22.5	13111	100
2025-3-17 11:7:9.558	WT901BLE68(E947F43FF2E9)	0.623	-0.976	-0.149	25.269	-62.744	-132.690	-105.72	15.05	36.19	-9.114	24.990	12.838	-0.52295	0.79297	0.14355	-0.27747	24.3	13111	100
2025-3-17 11:7:9.611	WT901BLE68(490AABDC0D29)	-0.074	-1.613	-0.304	69.397	-53.040	124.207	-94.75	18.36	-64.59	-29.792	43.806	55.860	0.63675	-0.54898	0.47992	-0.25043	22.5	13111	100
2025-3-17 11:7:9.685	WT901BLE68(E947F43FF2E9)	0.031	-1.317	-0.189	1.221	-42.786	-93.323	-102.67	8.37	44.53	32.928	18.130	22.932	-0.52295	0.79297	0.14355	-0.27747	24.3	13111	100
2025-3-17 11:7:9.730	WT901BLE68(490AABDC0D29)	0.814	-1.586	-0.611	45.044	-11.536	207.886	-85.47	34.51	-56.96	-29.792	43.806	55.860	0.63675	-0.54898	0.47992	-0.25043	22.5	13111	100
2025-3-17 11:7:9.736	WT901BLE68(E947F43FF2E9)	0.019	-0.920	-0.365	-1.343	38.940	-35.828	-102.60	1.72	44.41	32.928	18.130	22.932	-0.52295	0.79297	0.14355	-0.27747	24.3	13111	100
2025-3-17 11:7:9.826	WT901BLE68(490AABDC0D29)	0.115	-0.365	-0.289	25.269	80.750	-4.639	-85.21	44.60	-56.03	6.076	41.650	46.452	0.63675	-0.54898	0.47992	-0.25043	22.5	13111	100
2025-3-17 11:7:9.858	WT901BLE68(E947F43FF2E9)	-0.085	-0.933	-0.309	8.240	39.429	-18.738	-102.74	-1.21	43.75	32.928	18.130	22.932	-0.58386	0.72223	0.29675	-0.22208	24.3	13111	100
2025-3-17 11:7:9.941	WT901BLE68(490AABDC0D29)	-0.316	-0.358	-0.307	-17.761	131.775	-227.600	-94.10	27.41	-65.54	6.076	41.650	46.452	0.63675	-0.54898	0.47992	-0.25043	22.5	13111	100
2025-3-17 11:7:9.948	WT901BLE68(E947F43FF2E9)	0.101	-0.910	-0.300	25.146	44.678	-33.875	-101.20	-4.26	39.61	32.928	18.130	22.932	-0.58386	0.72223	0.29675	-0.22208	24.3	13111	100
2025-3-17 11:7:10.11	WT901BLE68(490AABDC0D29)	-1.995	-1.469	-0.604	-56.213	48.157	-346.924	-99.10	-5.55	-67.56	6.076	41.650	46.452	0.47202	-0.68567	0.35507	-0.42526	22.5	13111	100
2025-3-17 11:7:10.67	WT901BLE68(E947F43FF2E9)	0.111	-1.031	-0.295	23.865	28.687	-51.147	-99.11	-9.05	39.03	18.718	24.402	23.030	-0.58386	0.72223	0.29675	-0.22208	24.3	13111	100
2025-3-17 11:7:10.126	WT901BLE68(490AABDC0D29)	-0.922	-1.486	-0.068	-70.374	38.147	-159.851	-109.43	-32.36	-63.31	6.076	41.650	46.452	0.47202	-0.68567	0.35507	-0.42526	22.5	13111	100
2025-3-17 11:7:10.159	WT901BLE68(E947F43FF2E9)	-0.176	-1.070	-0.277	33.386	20.386	-88.928	-96.47	-15.33	37.82	18.718	24.402	23.030	-0.58386	0.72223	0.29675	-0.22208	24.3	13111	100
2025-3-17 11:7:10.211	WT901BLE68(490AABDC0D29)	-0.091	-1.658	0.241	6.226	-0.977	115.234	-106.62	-26.89	-70.53	-45.178	35.770	57.134	0.47202	-0.68567	0.35507	-0.42526	22.5	13111	100
2025-3-17 11:7:10.278	WT901BLE68(E947F43FF2E9)	0.172	-1.592	-0.485	39.001	52.124	-152.100	-92.52	-25.80	35.55	18.718	24.402	23.030	-0.70023	0.60846	0.37250	-0.02448	24.3	13111	100
2025-3-17 11:7:10.329	WT901BLE68(490AABDC0D29)	0.087	-0.838	-0.389	-6.958	-19.348	82.825	-105.86	-16.18	-73.43	-45.178	35.770	57.134	0.47202	-0.68567	0.35507	-0.42526	22.5	13111	100
2025-3-17 11:7:10.369	WT901BLE68(E947F43FF2E9)	-0.336	-1.070	-0.376	-25.452	56.213	-164.734	-87.02	-42.25	24.33	18.718	24.402	23.030	-0.70023	0.60846	0.37250	-0.02448	24.3	13111	100
2025-3-17 11:7:10.428	WT901BLE68(490AABDC0D29)	-0.019	-1.003	-0.282	-10.559	-38.818	47.485	-107.05	-8.37	-68.87	-45.178	35.770	57.134	0.45892	-0.68643	0.41855	-0.37802	22.5	13111	100
2025-3-17 11:7:10.487	WT901BLE68(E947F43FF2E9)	-0.013	0.039	0.035	-8.484	-14.282	55.908	-84.77	-46.15	14.93	-14.798	21.070	14.210	-0.70023	0.60846	0.37250	-0.02448	24.3	13111	100
2025-3-17 11:7:10.539	WT901BLE68(490AABDC0D29)	-0.005	-0.916	-0.322	6.165	-47.668	26.062	-107.58	-3.02	-63.94	-45.178	35.770	57.134	0.45892	-0.68643	0.41855	-0.37802	22.5	13111	100
2025-3-17 11:7:10.548	WT901BLE68(E947F43FF2E9)	0.236	-0.667	-0.136	-26.306	-63.965	240.295	-91.47	-28.91	19.34	-14.798	21.070	14.210	-0.70023	0.60846	0.37250	-0.02448	24.3	13111	100
2025-3-17 11:7:10.599	WT901BLE68(490AABDC0D29)	-0.094	-0.935	-0.313	11.902	-17.517	30.945	-107.09	0.53	-60.30	-28.518	42.532	60.564	0.45892	-0.68643	0.41855	-0.37802	22.5	13111	100
2025-3-17 11:7:10.668	WT901BLE68(E947F43FF2E9)	1.455	-1.630	-0.470	-66.406	-59.631	311.401	-96.70	0.93	23.02	-14.798	21.070	14.210	-0.63519	0.74338	0.12204	-0.17010	24.3	13111	100
2025-3-17 11:7:10.727	WT901BLE68(490AABDC0D29)	-0.061	-1.047	-0.233	23.804	-12.207	49.194	-105.06	4.71	-59.02	-28.518	42.532	60.564	0.45892	-0.68643	0.41855	-0.37802	22.5	13111	100
2025-3-17 11:7:10.758	WT901BLE68(E947F43FF2E9)	-1.512	-1.389	0.102	-70.679	86.670	228.760	-106.56	28.94	19.42	-14.798	21.070	14.210	-0.63519	0.74338	0.12204	-0.17010	24.3	13111	100
2025-3-17 11:7:10.811	WT901BLE68(490AABDC0D29)	0.402	-1.057	-0.261	27.832	-14.954	89.661	-102.52	11.05	-57.25	-28.518	42.532	60.564	0.59583	-0.64026	0.43375	-0.21634	22.5	13111	100
2025-3-17 11:7:10.877	WT901BLE68(E947F43FF2E9)	0.509	-0.841	-0.101	12.939	-77.698	-45.959	-105.05	24.46	23.85	41.062	11.956	24.304	-0.63519	0.74338	0.12204	-0.17010	24.3	13111	100
2025-3-17 11:7:10.929	WT901BLE68(490AABDC0D29)	0.000	-1.856	-0.556	54.993	-75.500	177.002	-97.58	23.45	-53.41	-28.518	42.532	60.564	0.59583	-0.64026	0.43375	-0.21634	22.5	13111	100
2025-3-17 11:7:10.969	WT901BLE68(E947F43FF2E9)	-0.056	-1.350	-0.259	-5.249	-39.001	-96.863	-100.79	14.46	30.34	41.062	11.956	24.304	-0.63519	0.74338	0.12204	-0.17010	24.3	13111	100
2025-3-17 11:7:11.30	WT901BLE68(490AABDC0D29)	0.350	-0.905	-0.268	-10.437	9.338	195.435	-92.33	41.81	-45.50	6.468	40.768	53.900	0.59583	-0.64026	0.43375	-0.21634	22.5	13111	100
2025-3-17 11:7:11.88	WT901BLE68(E947F43FF2E9)	0.007	-0.977	-0.307	2.808	59.265	-31.921	-100.30	7.14	29.77	41.062	11.956	24.304	-0.60901	0.74973	0.16385	-0.20013	24.3	13111	100
2025-3-17 11:7:11.139	WT901BLE68(490AABDC0D29)	-0.138	0.119	-0.169	11.963	82.520	-110.107	-92.91	42.04	-44.87	6.468	40.768	53.900	0.59583	-0.64026	0.43375	-0.21634	22.5	13111	100
2025-3-17 11:7:11.148	WT901BLE68(E947F43FF2E9)	-0.109	-0.893	-0.286	14.648	22.888	-25.208	-99.58	3.20	29.85	41.062	11.956	24.304	-0.60901	0.74973	0.16385	-0.20013	24.3	13111	100
2025-3-17 11:7:11.230	WT901BLE68(490AABDC0D29)	-0.399	-0.612	-0.319	-8.911	110.779	-254.395	-97.98	18.85	-51.58	6.468	40.768	53.900	0.62338	-0.63898	0.40384	-0.19983	22.5	13111	100
2025-3-17 11:7:11.267	WT901BLE68(E947F43FF2E9)	0.072	-1.002	-0.321	22.522	29.175	-30.640	-98.92	-0.42	28.84	25.872	23.030	23.716	-0.60901	0.74973	0.16385	-0.20013	24.3	13111	100
2025-3-17 11:7:11.349	WT901BLE68(490AABDC0D29)	-2.323	-1.876	-0.441	-61.462	82.947	-308.167	-101.98	-12.32	-51.90	6.468	40.768	53.900	0.62338	-0.63898	0.40384	-0.19983	22.5	13111	100
2025-3-17 11:7:11.357	WT901BLE68(E947F43FF2E9)	0.116	-0.995	-0.219	24.109	10.620	-51.514	-97.16	-4.89	30.88	25.872	23.030	23.716	-0.60901	0.74973	0.16385	-0.20013	24.3	13111	100
2025-3-17 11:7:11.409	WT901BLE68(490AABDC0D29)	-0.078	-1.049	-0.196	-25.757	56.702	-15.686	-102.84	-27.93	-59.91	-49.980	36.456	50.764	0.62338	-0.63898	0.40384	-0.19983	22.5	13111	100
2025-3-17 11:7:11.476	WT901BLE68(E947F43FF2E9)	-0.382	-1.090	-0.327	30.823	15.869	-92.712	-94.99	-12.14	32.22	25.872	23.030	23.716	-0.67255	0.67636	0.28290	-0.10028	24.3	13111	100
2025-3-17 11:7:11.531	WT901BLE68(490AABDC0D29)	0.138	-1.372	-0.018	13.306	-8.484	92.041	-100.04	-18.69	-65.91	-49.980	36.456	50.764	0.62338	-0.63898	0.40384	-0.19983	22.5	13111	100
2025-3-17 11:7:11.568	WT901BLE68(E947F43FF2E9)	1.006	-1.935	-0.442	7.324	133.423	-193.237	-90.72	-26.08	26.09	25.872	23.030	23.716	-0.67255	0.67636	0.28290	-0.10028	24.3	13111	100
2025-3-17 11:7:11.632	WT901BLE68(490AABDC0D29)	0.130	-0.817	-0.452	-7.019	-32.471	42.297	-102.30	-10.85	-64.05	-49.980	36.456	50.764	0.49759	-0.68839	0.36588	-0.38022	22.5	13111	100
2025-3-17 11:7:11.687	WT901BLE68(E947F43FF2E9)	-0.075	-0.440	-0.250	-50.171	36.194	-99.304	-90.16	-40.18	16.68	-9.702	23.716	20.384	-0.67255	0.67636	0.28290	-0.10028	24.3	13111	100
2025-3-17 11:7:11.738	WT901BLE68(490AABDC0D29)	0.074	-1.008	-0.229	-8.057	-20.325	39.368	-103.31	-6.14	-62.17	-49.980	36.456	50.764	0.49759	-0.68839	0.36588	-0.38022	22.5	13111	100
2025-3-17 11:7:11.779	WT901BLE68(E947F43FF2E9)	0.310	-0.137	0.062	-57.190	-55.176	113.281	-93.77	-33.64	11.22	-9.702	23.716	20.384	-0.67255	0.67636	0.28290	-0.10028	24.3	13111	100
2025-3-17 11:7:11.833	WT901BLE68(490AABDC0D29)	-0.015	-0.925	-0.282	5.127	-18.494	31.677	-103.62	-1.96	-60.61	-37.926	44.296	51.352	0.49759	-0.68839	0.36588	-0.38022	22.5	13111	100
2025-3-17 11:7:11.898	WT901BLE68(E947F43FF2E9)	0.808	-0.827	0.124	-56.152	-31.006	210.327	-101.28	-14.45	13.67	-9.702	23.716	20.384	-0.62573	0.76883	0.12881	-0.02496	24.3	13111	100
2025-3-17 11:7:11.949	WT901BLE68(490AABDC0D29)	-0.053	-1.010	-0.213	8.423	7.141	59.631	-102.85	2.37	-59.78	-37.926	44.296	51.352	0.49759	-0.68839	0.36588	-0.38022	22.5	13111	100
2025-3-17 11:7:11.956	WT901BLE68(E947F43FF2E9)	0.297	-1.402	-0.136	-23.743	-9.155	197.266	-104.11	5.69	12.93	-9.702	23.716	20.384	-0.62573	0.76883	0.12881	-0.02496	24.3	13111	100
2025-3-17 11:7:12.9	WT901BLE68(490AABDC0D29)	-0.456	-0.961	-0.252	6.897	-11.536	108.582	-102.14	9.70	-60.77	-37.926	44.296	51.352	0.57999	-0.63443	0.44711	-0.24722	22.5	13111	100
2025-3-17 11:7:12.78	WT901BLE68(E947F43FF2E9)	0.478	-0.809	-0.141	-28.137	124.573	124.146	-107.86	17.79	0.58	26.362	12.054	37.534	-0.62573	0.76883	0.12881	-0.02496	24.3	13111	100
2025-3-17 11:7:12.160	WT901BLE68(490AABDC0D29)	-0.325	-0.870	-0.220	-0.671	-19.348	105.957	-102.13	20.94	-60.30	-37.926	44.296	51.352	0.57999	-0.63443	0.44711	-0.24722	22.5	13111	100
2025-3-17 11:7:12.169	WT901BLE68(E947F43FF2E9)	-0.295	-0.852	-0.268	12.512	151.184	-32.898	-111.34	16.43	-10.54	26.362	12.054	37.534	-0.62573	0.76883	0.12881	-0.02496	24.3	13111	100
2025-3-17 11:7:12.221	WT901BLE68(490AABDC0D29)	0.203	-1.335	-0.334	21.851	-34.363	100.952	-101.48	30.49	-59.61	-6.566	47.726	47.824	0.57999	-0.63443	0.44711	-0.24722	22.5	13111	100
2025-3-17 11:7:12.287	WT901BLE68(E947F43FF2E9)	0.026	-1.534	0.109	6.714	22.217	-24.658	-109.21	5.88	-13.34	26.362	12.054	37.534	-0.58221	0.80447	-0.11163	0.03592	24.3	13111	100
2025-3-17 11:7:12.371	WT901BLE68(490AABDC0D29)	-0.606	-2.579	-0.557	61.523	-102.783	197.144	-94.99	44.43	-54.22	-6.566	47.726	47.824	0.57999	-0.63443	0.44711	-0.24722	22.5	13111	100
2025-3-17 11:7:12.379	WT901BLE68(E947F43FF2E9)	0.427	-0.943	-0.645	17.212	-33.936	-65.125	-105.90	-0.58	-5.84	26.362	12.054	37.534	-0.58221	0.80447	-0.11163	0.03592	24.3	13111	100
2025-3-17 11:7:12.434	WT901BLE68(490AABDC0D29)	-0.165	0.132	-0.112	102.478	129.517	45.898	-89.48	54.29	-54.88	-6.566	47.726	47.824	0.69064	-0.41559	0.58273	-0.10309	22.5	13111	100
2025-3-17 11:7:12.497	WT901BLE68(E947F43FF2E9)	0.229	-1.167	-0.151	6.958	-38.696	-26.184	-104.78	-4.37	0.60	12.152	14.308	38.612	-0.58221	0.80447	-0.11163	0.03592	24.3	13111	100
2025-3-17 11:7:12.549	WT901BLE68(490AABDC0D29)	-0.824	-0.409	-0.550	101.257	49.316	-235.474	-90.64	39.28	-68.57	-6.566	47.726	47.824	0.69064	-0.41559	0.58273	-0.10309	22.5	13111	100
2025-3-17 11:7:12.558	WT901BLE68(E947F43FF2E9)	0.248	-0.717	-0.385	-9.277	36.804	-38.086	-105.53	-8.23	0.48	12.152	14.308	38.612	-0.58221	0.80447	-0.11163	0.03592	24.3	13111	100
2025-3-17 11:7:12.641	WT901BLE68(490AABDC0D29)	-0.685	-0.985	-0.942	-6.226	169.373	-216.492	-94.59	16.18	-84.90	-14.994	45.962	34.006	0.69064	-0.41559	0.58273	-0.10309	22.5	13111	100
2025-3-17 11:7:12.677	WT901BLE68(E947F43FF2E9)	0.482	-0.889	-0.312	-13.000	38.269	-45.715	-106.68	-12.44	0.49	12.152	14.308	38.612	-0.58994	0.79703	0.07678	0.10355	24.3	13111	100
2025-3-17 11:7:12.759	WT901BLE68(490AABDC0D29)	-0.639	-1.176	-0.484	-12.085	19.470	-175.476	-98.61	-2.68	-92.68	-14.994	45.962	34.006	0.69064	-0.41559	0.58273	-0.10309	22.5	13111	100
2025-3-17 11:7:12.766	WT901BLE68(E947F43FF2E9)	0.397	-0.603	-0.307	-8.240	49.255	-67.261	-107.16	-19.46	-1.29	12.152	14.308	38.612	-0.58994	0.79703	0.07678	0.10355	24.3	13111	100
2025-3-17 11:7:12.819	WT901BLE68(490AABDC0D29)	-0.315	-1.044	-0.184	-4.822	178.284	32.410	-102.57	-10.25	-101.23	-14.994	45.962	34.006	0.33252	-0.50980	0.58786	-0.53278	22.5	13111	100
2025-3-17 11:7:12.888	WT901BLE68(E947F43FF2E9)	0.155	-1.109	-0.207	-14.099	57.434	-100.098	-107.84	-27.88	-2.09	-8.722	8.918	39.298	-0.58994	0.79703	0.07678	0.10355	24.3	13111	100
2025-3-17 11:7:12.941	WT901BLE68(490AABDC0D29)	0.115	-1.590	0.754	7.202	20.691	-21.423	-101.98	-1.90	-110.79	-14.994	45.962	34.006	0.33252	-0.50980	0.58786	-0.53278	22.5	13111	100
2025-3-17 11:7:12.979	WT901BLE68(E947F43FF2E9)	0.734	-1.894	-0.396	-43.823	152.039	-179.016	-107.79	-42.91	-7.12	-8.722	8.918	39.298	-0.58994	0.79703	0.07678	0.10355	24.3	13111	100
2025-3-17 11:7:13.37	WT901BLE68(490AABDC0D29)	-0.503	-0.916	-0.441	0.000	56.335	99.487	-102.17	7.87	-112.47	-19.796	44.492	26.754	0.33252	-0.50980	0.58786	-0.53278	22.5	13111	100
2025-3-17 11:7:13.98	WT901BLE68(E947F43FF2E9)	-0.465	0.566	-0.141	-59.875	2.808	-62.256	-111.96	-53.62	-8.12	-8.722	8.918	39.298	-0.45670	0.75885	0.19666	0.42044	24.3	13111	100
2025-3-17 11:7:13.181	WT901BLE68(490AABDC0D29)	-0.121	-0.837	-0.260	10.803	16.968	52.429	-102.82	14.39	-113.99	-19.796	44.492	26.754	0.33252	-0.50980	0.58786	-0.53278	22.5	13111	100
2025-3-17 11:7:13.189	WT901BLE68(E947F43FF2E9)	0.223	-0.232	-0.027	-59.875	21.973	215.881	-114.02	-46.49	-14.41	-8.722	8.918	39.298	-0.45670	0.75885	0.19666	0.42044	24.3	13111	100
2025-3-17 11:7:13.240	WT901BLE68(490AABDC0D29)	-0.320	-1.187	-0.111	5.127	1.587	37.903	-102.50	16.16	-112.70	-19.796	44.492	26.754	0.45306	-0.35184	0.69012	-0.44110	22.5	13111	100
2025-3-17 11:7:13.338	WT901BLE68(E947F43FF2E9)	1.081	-0.892	0.173	-99.670	126.099	333.252	-112.51	-18.22	-33.54	-15.092	4.116	36.946	-0.45670	0.75885	0.19666	0.42044	24.3	13111	100
2025-3-17 11:7:13.362	WT901BLE68(490AABDC0D29)	-0.480	-0.856	-0.172	8.179	5.859	69.946	-101.74	22.24	-109.61	-19.796	44.492	26.754	0.45306	-0.35184	0.69012	-0.44110	22.5	13111	100
2025-3-17 11:7:13.369	WT901BLE68(E947F43FF2E9)	1.023	-1.801	0.396	-83.252	143.799	267.212	-116.36	1.63	-63.05	-15.092	4.116	36.946	-0.45670	0.75885	0.19666	0.42044	24.3	13111	100
2025-3-17 11:7:13.419	WT901BLE68(490AABDC0D29)	0.390	-1.069	-0.192	34.363	-27.466	115.173	-99.43	31.55	-105.99	-0.294	40.082	23.716	0.45306	-0.35184	0.69012	-0.44110	22.5	13111	100
2025-3-17 11:7:13.487	WT901BLE68(E947F43FF2E9)	0.003	-0.911	-0.409	37.048	88.562	-10.071	-116.28	2.47	-82.62	-15.092	4.116	36.946	-0.42972	0.65042	-0.53598	0.32388	24.3	13111	100
2025-3-17 11:7:13.542	WT901BLE68(490AABDC0D29)	0.004	-2.102	-0.345	102.234	-67.627	234.741	-89.34	46.75	-95.88	-0.294	40.082	23.716	0.45306	-0.35184	0.69012	-0.44110	22.5	13111	100
2025-3-17 11:7:13.577	WT901BLE68(E947F43FF2E9)	0.280	-1.175	-0.404	15.625	-74.219	-86.853	-112.85	-2.08	-72.52	-15.092	4.116	36.946	-0.42972	0.65042	-0.53598	0.32388	24.3	13111	100
2025-3-17 11:7:13.639	WT901BLE68(490AABDC0D29)	0.367	0.473	-0.219	112.976	183.167	32.776	-84.47	60.96	-97.80	-0.294	40.082	23.716	0.64783	-0.07486	0.70215	-0.28564	22.5	13111	100
2025-3-17 11:7:13.699	WT901BLE68(E947F43FF2E9)	0.263	-0.914	-0.428	31.067	-21.057	-60.242	-111.49	-5.71	-64.02	-18.130	9.506	29.106	-0.42972	0.65042	-0.53598	0.32388	24.3	13111	100
2025-3-17 11:7:13.751	WT901BLE68(490AABDC0D29)	-1.258	-0.648	-0.521	102.295	215.210	-269.043	-97.36	46.24	-127.32	-0.294	40.082	23.716	0.64783	-0.07486	0.70215	-0.28564	22.5	13111	100
2025-3-17 11:7:13.788	WT901BLE68(E947F43FF2E9)	0.428	-0.970	-0.179	14.038	-8.118	-31.555	-109.76	-8.08	-59.38	-18.130	9.506	29.106	-0.42972	0.65042	-0.53598	0.32388	24.3	13111	100
2025-3-17 11:7:13.841	WT901BLE68(490AABDC0D29)	-0.875	-1.707	-0.759	39.124	118.713	-229.309	-103.64	17.67	-151.88	8.624	36.358	32.144	0.64783	-0.07486	0.70215	-0.28564	22.5	13111	100
2025-3-17 11:7:13.907	WT901BLE68(E947F43FF2E9)	0.445	-0.917	-0.064	-9.460	29.297	-75.134	-109.12	-14.77	-57.04	-18.130	9.506	29.106	-0.44461	0.75061	-0.30670	0.38043	24.3	13111	100
2025-3-17 11:7:13.959	WT901BLE68(490AABDC0D29)	-1.479	-1.313	-0.243	-36.987	125.183	-110.168	-103.81	-3.32	-149.36	8.624	36.358	32.144	0.64783	-0.07486	0.70215	-0.28564	22.5	13111	100
2025-3-17 11:7:13.969	WT901BLE68(E947F43FF2E9)	0.470	-1.114	-0.340	-26.123	60.669	-88.867	-110.11	-23.89	-57.31	-18.130	9.506	29.106	-0.44461	0.75061	-0.30670	0.38043	24.3	13111	100
2025-3-17 11:7:14.51	WT901BLE68(490AABDC0D29)	0.380	-0.927	0.224	-2.197	35.461	97.778	-105.90	-5.09	-157.14	8.624	36.358	32.144	0.10977	-0.18103	0.78088	-0.58762	22.5	13111	100
2025-3-17 11:7:14.87	WT901BLE68(E947F43FF2E9)	0.666	-2.133	-0.419	-37.903	119.995	-170.166	-110.95	-37.99	-60.07	-32.536	-9.702	20.384	-0.44461	0.75061	-0.30670	0.38043	24.3	13111	100
2025-3-17 11:7:14.170	WT901BLE68(490AABDC0D29)	-0.278	-1.585	-0.062	2.014	94.238	120.544	-107.76	4.19	-155.30	8.624	36.358	32.144	0.10977	-0.18103	0.78088	-0.58762	22.5	13111	100
2025-3-17 11:7:14.183	WT901BLE68(E947F43FF2E9)	-0.209	0.311	-0.223	-72.876	54.199	-54.504	-112.56	-50.28	-64.87	-32.536	-9.702	20.384	-0.44461	0.75061	-0.30670	0.38043	24.3	13111	100
2025-3-17 11:7:14.229	WT901BLE68(490AABDC0D29)	-0.323	-1.408	-0.057	-16.663	33.142	48.035	-110.06	11.56	-156.16	10.290	37.338	42.238	0.10977	-0.18103	0.78088	-0.58762	22.5	13111	100
2025-3-17 11:7:14.299	WT901BLE68(E947F43FF2E9)	0.686	-0.758	-0.081	-100.525	-6.775	293.274	-112.54	-36.86	-77.28	-32.536	-9.702	20.384	-0.28427	0.67978	-0.47977	0.47626	24.3	13111	100
2025-3-17 11:7:14.351	WT901BLE68(490AABDC0D29)	-0.245	-1.004	-0.202	-3.967	10.925	3.418	-111.30	14.00	-151.48	10.290	37.338	42.238	0.10977	-0.18103	0.78088	-0.58762	22.5	13111	100
2025-3-17 11:7:14.423	WT901BLE68(E947F43FF2E9)	1.299	-1.823	0.205	-119.751	64.392	325.989	-118.03	-9.29	-94.88	-32.536	-9.702	20.384	-0.28427	0.67978	-0.47977	0.47626	24.3	13111	100
2025-3-17 11:7:14.442	WT901BLE68(490AABDC0D29)	-0.206	-0.912	-0.299	-6.775	1.587	35.706	-112.38	15.81	-145.74	10.290	37.338	42.238	0.29373	-0.17374	0.80655	-0.48260	22.5	13111	100
2025-3-17 11:7:14.506	WT901BLE68(E947F43FF2E9)	-0.025	-1.211	-0.078	27.954	88.867	166.260	-120.81	10.68	-108.34	-4.214	23.128	11.760	-0.28427	0.67978	-0.47977	0.47626	24.3	13111	100
2025-3-17 11:7:14.598	WT901BLE68(E947F43FF2E9)	-0.775	-0.893	-0.348	34.973	96.191	-22.583	-121.01	9.81	-121.47	-4.214	23.128	11.760	-0.28427	0.67978	-0.47977	0.47626	24.3	13111	100
2025-3-17 11:7:14.623	WT901BLE68(490AABDC0D29)	-0.555	-1.082	-0.195	4.944	-19.104	91.797	-112.06	23.20	-140.21	10.290	37.338	42.238	0.29373	-0.17374	0.80655	-0.48260	22.5	13111	100
2025-3-17 11:7:14.652	WT901BLE68(490AABDC0D29)	0.122	-0.956	-0.106	14.954	-22.705	105.957	-111.12	34.46	-135.58	22.540	23.912	41.748	0.29373	-0.17374	0.80655	-0.48260	22.5	13111	100
2025-3-17 11:7:14.726	WT901BLE68(E947F43FF2E9)	-0.131	-1.298	-0.593	13.916	55.908	-1.526	-116.16	4.82	-115.69	-4.214	23.128	11.760	-0.29620	0.43454	-0.72498	0.44467	24.3	13111	100
2025-3-17 11:7:14.770	WT901BLE68(490AABDC0D29)	0.458	-2.202	-0.529	39.307	-81.726	221.436	-107.25	51.00	-128.96	22.540	23.912	41.748	0.29373	-0.17374	0.80655	-0.48260	22.5	13111	100
2025-3-17 11:7:14.779	WT901BLE68(E947F43FF2E9)	0.393	-1.513	-0.644	20.569	-47.485	-84.290	-114.39	-1.08	-112.53	-4.214	23.128	11.760	-0.29620	0.43454	-0.72498	0.44467	24.3	13111	100
2025-3-17 11:7:14.831	WT901BLE68(490AABDC0D29)	0.379	0.732	0.239	-11.536	61.646	27.222	-111.51	60.92	-129.41	22.540	23.912	41.748	0.57358	-0.11743	0.75366	-0.29855	22.5	13111	100
2025-3-17 11:7:14.898	WT901BLE68(E947F43FF2E9)	0.171	-0.725	-0.229	19.775	-40.405	-36.438	-112.33	-4.62	-104.90	-12.642	18.522	5.586	-0.29620	0.43454	-0.72498	0.44467	24.3	13111	100
2025-3-17 11:7:14.951	WT901BLE68(490AABDC0D29)	-1.883	-0.631	-0.251	11.414	137.268	-299.194	-102.96	37.33	-118.88	22.540	23.912	41.748	0.57358	-0.11743	0.75366	-0.29855	22.5	13111	100
2025-3-17 11:7:14.987	WT901BLE68(E947F43FF2E9)	0.217	-0.980	-0.177	6.653	-6.104	-46.143	-110.89	-7.16	-100.87	-12.642	18.522	5.586	-0.29620	0.43454	-0.72498	0.44467	24.3	13111	100
2025-3-17 11:7:15.41	WT901BLE68(490AABDC0D29)	-0.711	-1.763	-0.314	-33.081	-95.764	-283.325	-103.02	7.72	-110.31	6.566	36.456	47.530	0.57358	-0.11743	0.75366	-0.29855	22.5	13111	100
2025-3-17 11:7:15.107	WT901BLE68(E947F43FF2E9)	0.440	-1.000	-0.207	6.958	12.756	-78.674	-110.02	-13.16	-98.60	-12.642	18.522	5.586	-0.28296	0.59970	-0.54758	0.51022	24.3	13111	100
2025-3-17 11:7:15.162	WT901BLE68(490AABDC0D29)	-0.364	-1.079	0.090	-5.798	-118.408	-21.729	-107.88	-1.53	-87.04	6.566	36.456	47.530	0.57358	-0.11743	0.75366	-0.29855	22.5	13111	100
2025-3-17 11:7:15.199	WT901BLE68(E947F43FF2E9)	-0.246	-0.916	-0.331	17.212	25.513	-93.140	-108.93	-21.50	-96.54	-12.642	18.522	5.586	-0.28296	0.59970	-0.54758	0.51022	24.3	13111	100
2025-3-17 11:7:15.251	WT901BLE68(490AABDC0D29)	0.424	-1.082	-0.401	-7.385	-12.329	30.212	-106.38	2.81	-84.03	6.566	36.456	47.530	0.47855	-0.57944	0.54596	-0.37021	22.5	13111	100
2025-3-17 11:7:15.328	WT901BLE68(E947F43FF2E9)	0.037	-2.547	-0.513	19.043	106.384	-200.867	-106.31	-34.69	-97.79	-29.106	1.372	-1.078	-0.28296	0.59970	-0.54758	0.51022	24.3	13111	100
2025-3-17 11:7:15.371	WT901BLE68(490AABDC0D29)	-0.326	-1.652	-0.117	-4.639	37.476	74.829	-105.78	8.42	-83.88	6.566	36.456	47.530	0.47855	-0.57944	0.54596	-0.37021	22.5	13111	100
2025-3-17 11:7:15.378	WT901BLE68(E947F43FF2E9)	0.066	0.603	0.160	18.982	-5.127	-21.484	-103.90	-44.20	-98.95	-29.106	1.372	-1.078	-0.28296	0.59970	-0.54758	0.51022	24.3	13111	100
2025-3-17 11:7:15.490	WT901BLE68(490AABDC0D29)	-0.203	-1.179	-0.100	-2.136	19.470	43.518	-106.34	13.68	-85.51	8.232	36.358	46.256	0.47855	-0.57944	0.54596	-0.37021	22.5	13111	100
2025-3-17 11:7:15.499	WT901BLE68(E947F43FF2E9)	1.147	-0.377	-0.401	-14.526	-104.431	223.694	-109.60	-23.90	-90.58	-29.106	1.372	-1.078	-0.32611	0.62277	-0.53946	0.46335	24.3	13111	100
2025-3-17 11:7:15.580	WT901BLE68(490AABDC0D29)	-0.409	-0.892	-0.163	11.230	-14.832	36.682	-105.60	16.40	-82.66	8.232	36.358	46.256	0.47855	-0.57944	0.54596	-0.37021	22.5	13111	100
2025-3-17 11:7:15.589	WT901BLE68(E947F43FF2E9)	1.167	-1.463	-0.226	-39.978	48.706	272.156	-114.36	0.30	-96.32	-29.106	1.372	-1.078	-0.32611	0.62277	-0.53946	0.46335	24.3	13111	100
2025-3-17 11:7:15.641	WT901BLE68(490AABDC0D29)	-0.478	-0.897	-0.229	2.991	-21.545	79.956	-105.21	22.10	-78.05	8.232	36.358	46.256	0.58234	-0.52243	0.58234	-0.22073	22.5	13111	100
2025-3-17 11:7:15.706	WT901BLE68(E947F43FF2E9)	-0.128	-1.104	-0.177	11.475	24.231	98.206	-116.22	16.93	-101.52	-3.724	22.834	9.016	-0.32611	0.62277	-0.53946	0.46335	24.3	13111	100
2025-3-17 11:7:15.792	WT901BLE68(490AABDC0D29)	-0.491	-0.889	-0.325	9.827	-17.761	86.609	-104.17	30.34	-73.76	8.232	36.358	46.256	0.58234	-0.52243	0.58234	-0.22073	22.5	13111	100
2025-3-17 11:7:15.799	WT901BLE68(E947F43FF2E9)	-0.245	-1.103	-0.136	37.415	65.857	-102.966	-114.58	11.11	-104.00	-3.724	22.834	9.016	-0.32611	0.62277	-0.53946	0.46335	24.3	13111	100
2025-3-17 11:7:15.851	WT901BLE68(490AABDC0D29)	-0.285	-1.996	-0.234	8.301	-52.979	123.474	-101.79	39.75	-67.84	22.442	20.874	40.964	0.58234	-0.52243	0.58234	-0.22073	22.5	13111	100
2025-3-17 11:7:15.917	WT901BLE68(E947F43FF2E9)	0.075	-0.815	-0.437	24.536	-13.733	-65.308	-110.37	6.58	-95.33	-3.724	22.834	9.016	-0.41690	0.55679	-0.59924	0.39618	24.3	13111	100
2025-3-17 11:7:15.971	WT901BLE68(490AABDC0D29)	0.782	0.261	-0.571	0.793	17.517	55.969	-94.80	52.89	-59.04	22.442	20.874	40.964	0.58234	-0.52243	0.58234	-0.22073	22.5	13111	100
2025-3-17 11:7:16.9	WT901BLE68(E947F43FF2E9)	0.336	-1.369	-0.104	24.048	-59.631	-54.749	-108.78	1.97	-88.91	-3.724	22.834	9.016	-0.41690	0.55679	-0.59924	0.39618	24.3	13111	100
2025-3-17 11:7:16.60	WT901BLE68(490AABDC0D29)	-0.896	0.059	-0.263	13.550	99.792	-204.041	-98.56	43.13	-60.17	22.442	20.874	40.964	0.64468	-0.53778	0.52374	-0.14398	22.5	13111	100
2025-3-17 11:7:16.130	WT901BLE68(E947F43FF2E9)	0.033	-0.845	-0.230	16.541	-12.268	-46.326	-106.60	-1.70	-84.10	-15.190	17.248	6.664	-0.41690	0.55679	-0.59924	0.39618	24.3	13111	100
2025-3-17 11:7:16.187	WT901BLE68(E947F43FF2E9)	0.438	-1.028	-0.140	4.395	11.414	-71.350	-105.66	-6.63	-82.11	-15.190	17.248	6.664	-0.41690	0.55679	-0.59924	0.39618	24.3	13111	100
2025-3-17 11:7:16.211	WT901BLE68(490AABDC0D29)	-0.817	-1.428	-0.286	-39.795	-4.944	-241.638	-99.71	14.43	-60.39	22.442	20.874	40.964	0.64468	-0.53778	0.52374	-0.14398	22.5	13111	100
2025-3-17 11:7:16.241	WT901BLE68(490AABDC0D29)	-0.480	-1.553	0.364	-37.842	-112.915	-126.953	-103.80	-3.64	-43.98	-5.096	40.376	40.964	0.64468	-0.53778	0.52374	-0.14398	22.5	13111	100
2025-3-17 11:7:16.307	WT901BLE68(E947F43FF2E9)	0.383	-0.886	-0.291	0.244	26.184	-98.511	-105.38	-15.47	-80.94	-15.190	17.248	6.664	-0.36508	0.66214	-0.42847	0.49454	24.3	13111	100
2025-3-17 11:7:16.359	WT901BLE68(490AABDC0D29)	0.522	-0.948	-0.389	15.015	-79.041	40.466	-103.71	-0.59	-35.87	-5.096	40.376	40.964	0.64468	-0.53778	0.52374	-0.14398	22.5	13111	100
2025-3-17 11:7:16.397	WT901BLE68(E947F43FF2E9)	0.801	-1.683	-0.447	13.367	60.669	-123.779	-104.08	-26.30	-82.34	-15.190	17.248	6.664	-0.36508	0.66214	-0.42847	0.49454	24.3	13111	100
2025-3-17 11:7:16.451	WT901BLE68(490AABDC0D29)	-0.361	-1.212	-0.360	21.423	22.522	80.078	-102.73	2.55	-38.58	-5.096	40.376	40.964	0.59540	-0.70853	0.32370	-0.19647	22.5	13111	100
2025-3-17 11:7:16.516	WT901BLE68(E947F43FF2E9)	-0.177	0.396	0.042	2.625	14.404	-62.805	-102.18	-38.41	-83.58	-31.752	-4.998	1.078	-0.36508	0.66214	-0.42847	0.49454	24.3	13111	100
2025-3-17 11:7:16.571	WT901BLE68(490AABDC0D29)	0.044	-1.476	-0.093	9.766	48.523	62.195	-102.76	7.75	-46.44	-5.096	40.376	40.964	0.59540	-0.70853	0.32370	-0.19647	22.5	13111	100
2025-3-17 11:7:16.608	WT901BLE68(E947F43FF2E9)	0.914	-0.300	-0.250	-16.235	-76.050	263.611	-104.49	-25.21	-79.45	-31.752	-4.998	1.078	-0.36508	0.66214	-0.42847	0.49454	24.3	13111	100
2025-3-17 11:7:16.658	WT901BLE68(490AABDC0D29)	-0.226	-0.943	-0.204	6.348	-10.498	60.669	-101.32	11.65	-47.62	6.076	37.436	41.454	0.59540	-0.70853	0.32370	-0.19647	22.5	13111	100
2025-3-17 11:7:16.732	WT901BLE68(E947F43FF2E9)	1.355	-1.409	-0.109	-39.429	25.940	286.072	-108.34	2.25	-84.87	-31.752	-4.998	1.078	-0.48560	0.52478	-0.62485	0.31345	24.3	13111	100
2025-3-17 11:7:16.781	WT901BLE68(490AABDC0D29)	-0.509	-0.900	-0.276	13.733	-15.076	75.745	-100.50	17.60	-44.66	6.076	37.436	41.454	0.59540	-0.70853	0.32370	-0.19647	22.5	13111	100
2025-3-17 11:7:16.788	WT901BLE68(E947F43FF2E9)	-0.122	-0.898	-0.003	2.502	103.333	99.487	-109.97	21.82	-89.21	-31.752	-4.998	1.078	-0.48560	0.52478	-0.62485	0.31345	24.3	13111	100
2025-3-17 11:7:16.871	WT901BLE68(490AABDC0D29)	-0.514	-0.833	-0.232	19.897	-21.912	96.863	-98.45	25.58	-41.41	6.076	37.436	41.454	0.66638	-0.62485	0.40509	-0.03564	22.5	13111	100
2025-3-17 11:7:16.907	WT901BLE68(E947F43FF2E9)	-0.398	-0.897	-0.471	45.349	-59.692	-86.121	-109.25	17.03	-93.25	-6.860	23.912	4.998	-0.48560	0.52478	-0.62485	0.31345	24.3	13111	100
2025-3-17 11:7:16.992	WT901BLE68(490AABDC0D29)	-0.252	-1.788	-0.274	23.865	-57.434	139.771	-94.86	35.49	-35.90	6.076	37.436	41.454	0.66638	-0.62485	0.40509	-0.03564	22.5	13111	100
2025-3-17 11:7:16.999	WT901BLE68(E947F43FF2E9)	0.200	-1.171	-0.434	0.427	-13.428	-95.947	-105.58	11.16	-85.62	-6.860	23.912	4.998	-0.48560	0.52478	-0.62485	0.31345	24.3	13111	100
2025-3-17 11:7:17.51	WT901BLE68(490AABDC0D29)	0.520	0.203	-0.150	-28.992	25.452	40.955	-88.24	46.74	-26.69	23.226	15.582	27.930	0.66638	-0.62485	0.40509	-0.03564	22.5	13111	100
2025-3-17 11:7:17.116	WT901BLE68(E947F43FF2E9)	0.212	-0.937	-0.315	5.249	-25.818	-38.330	-104.52	6.48	-80.81	-6.860	23.912	4.998	-0.49402	0.58932	-0.52429	0.36554	24.3	13111	100
2025-3-17 11:7:17.169	WT901BLE68(490AABDC0D29)	-1.014	-0.269	-0.243	-13.062	180.298	-186.096	-94.83	36.75	-31.38	23.226	15.582	27.930	0.66638	-0.62485	0.40509	-0.03564	22.5	13111	100
2025-3-17 11:7:17.207	WT901BLE68(E947F43FF2E9)	0.296	-0.890	-0.242	6.409	12.817	-23.071	-103.96	3.39	-79.20	-6.860	23.912	4.998	-0.49402	0.58932	-0.52429	0.36554	24.3	13111	100
2025-3-17 11:7:17.261	WT901BLE68(490AABDC0D29)	-0.348	-1.384	-0.285	-19.470	-10.193	-222.107	-100.95	10.69	-36.75	23.226	15.582	27.930	0.60522	-0.76114	0.16595	-0.16336	22.5	13111	100
2025-3-17 11:7:17.334	WT901BLE68(E947F43FF2E9)	0.319	-0.881	-0.154	7.935	-9.277	-60.852	-103.23	-1.13	-78.75	-22.050	14.896	5.194	-0.49402	0.58932	-0.52429	0.36554	24.3	13111	100
2025-3-17 11:7:17.381	WT901BLE68(490AABDC0D29)	-0.734	-1.489	0.163	-64.819	-148.376	-156.006	-105.13	-6.99	-20.21	23.226	15.582	27.930	0.60522	-0.76114	0.16595	-0.16336	22.5	13111	100
2025-3-17 11:7:17.418	WT901BLE68(E947F43FF2E9)	0.567	-0.900	-0.221	10.681	11.292	-93.750	-102.47	-8.88	-77.59	-22.050	14.896	5.194	-0.49402	0.58932	-0.52429	0.36554	24.3	13111	100
2025-3-17 11:7:17.470	WT901BLE68(490AABDC0D29)	-0.289	-0.981	-0.038	8.545	-105.652	22.644	-108.43	-7.66	-7.53	2.254	46.550	39.494	0.60522	-0.76114	0.16595	-0.16336	22.5	13111	100
2025-3-17 11:7:17.537	WT901BLE68(E947F43FF2E9)	-0.077	-1.292	-0.366	18.433	27.649	-89.722	-101.29	-18.49	-77.97	-22.050	14.896	5.194	-0.36084	0.66052	-0.35776	0.55261	24.3	13111	100
2025-3-17 11:7:17.592	WT901BLE68(490AABDC0D29)	-0.016	-1.594	0.303	27.527	-51.208	85.693	-107.13	-2.92	-7.61	2.254	46.550	39.494	0.60522	-0.76114	0.16595	-0.16336	22.5	13111	100
2025-3-17 11:7:17.599	WT901BLE68(E947F43FF2E9)	-0.792	-0.979	-0.364	49.377	39.368	-154.907	-95.73	-34.09	-83.41	-22.050	14.896	5.194	-0.36084	0.66052	-0.35776	0.55261	24.3	13111	100
2025-3-17 11:7:17.651	WT901BLE68(490AABDC0D29)	-0.394	-1.275	-0.501	29.724	62.744	96.069	-105.21	3.28	-14.72	2.254	46.550	39.494	0.61230	-0.77435	0.15317	-0.04376	22.5	13111	100
2025-3-17 11:7:17.717	WT901BLE68(E947F43FF2E9)	0.737	0.421	-0.338	44.495	-135.986	107.300	-96.32	-34.96	-77.33	-34.692	-5.390	1.078	-0.36084	0.66052	-0.35776	0.55261	24.3	13111	100
2025-3-17 11:7:17.770	WT901BLE68(490AABDC0D29)	-0.242	-1.072	-0.114	-2.014	2.625	51.758	-104.68	9.30	-18.34	2.254	46.550	39.494	0.61230	-0.77435	0.15317	-0.04376	22.5	13111	100
2025-3-17 11:7:17.809	WT901BLE68(E947F43FF2E9)	1.115	-0.679	-0.346	-17.517	-61.646	267.151	-100.40	-9.68	-68.31	-34.692	-5.390	1.078	-0.36084	0.66052	-0.35776	0.55261	24.3	13111	100
2025-3-17 11:7:17.861	WT901BLE68(490AABDC0D29)	-0.312	-1.049	-0.166	7.141	-19.714	55.542	-103.86	14.04	-16.50	19.894	34.692	40.474	0.61230	-0.77435	0.15317	-0.04376	22.5	13111	100
2025-3-17 11:7:17.937	WT901BLE68(E947F43FF2E9)	0.712	-1.879	-0.221	-40.771	27.161	240.295	-105.75	13.11	-76.25	-34.692	-5.390	1.078	-0.53912	0.54880	-0.58649	0.25314	24.3	13111	100
2025-3-17 11:7:17.981	WT901BLE68(490AABDC0D29)	-0.381	-0.925	-0.281	9.094	-17.334	62.134	-103.16	20.47	-14.59	19.894	34.692	40.474	0.61230	-0.77435	0.15317	-0.04376	22.5	13111	100
2025-3-17 11:7:18.17	WT901BLE68(E947F43FF2E9)	-0.665	-0.952	0.024	-9.277	116.699	37.537	-109.04	22.21	-81.15	-34.692	-5.390	1.078	-0.53912	0.54880	-0.58649	0.25314	24.3	13111	100
2025-3-17 11:7:18.72	WT901BLE68(490AABDC0D29)	0.034	-1.085	-0.272	21.301	-33.142	90.881	-101.27	28.16	-12.23	19.894	34.692	40.474	0.63672	-0.70309	0.25601	0.18604	22.5	13111	100
2025-3-17 11:7:18.140	WT901BLE68(E947F43FF2E9)	-0.411	-1.223	-0.255	-4.150	-56.702	-43.518	-107.06	18.45	-77.77	-10.290	25.676	3.724	-0.53912	0.54880	-0.58649	0.25314	24.3	13111	100
2025-3-17 11:7:18.191	WT901BLE68(490AABDC0D29)	0.300	-2.074	-0.377	42.725	-51.575	166.138	-96.37	40.55	-6.70	19.894	34.692	40.474	0.63672	-0.70309	0.25601	0.18604	22.5	13111	100
2025-3-17 11:7:18.199	WT901BLE68(E947F43FF2E9)	0.370	-1.633	-0.218	-4.089	-22.339	-78.674	-106.03	9.75	-75.58	-10.290	25.676	3.724	-0.53912	0.54880	-0.58649	0.25314	24.3	13111	100
2025-3-17 11:7:18.280	WT901BLE68(490AABDC0D29)	-0.214	0.126	0.252	15.259	5.127	-34.607	-96.75	47.46	-5.15	32.046	10.486	34.398	0.63672	-0.70309	0.25601	0.18604	22.5	13111	100
2025-3-17 11:7:18.318	WT901BLE68(E947F43FF2E9)	0.193	-0.808	-0.338	8.545	-34.607	-24.292	-104.62	5.10	-72.19	-10.290	25.676	3.724	-0.51239	0.62604	-0.47934	0.34003	24.3	13111	100
2025-3-17 11:7:18.401	WT901BLE68(490AABDC0D29)	-0.874	-0.543	-0.412	-5.676	109.497	-233.459	-99.69	29.62	-7.55	32.046	10.486	34.398	0.63672	-0.70309	0.25601	0.18604	22.5	13111	100
2025-3-17 11:7:18.409	WT901BLE68(E947F43FF2E9)	0.247	-0.845	-0.293	16.785	-0.244	-23.376	-103.71	2.92	-72.16	-10.290	25.676	3.724	-0.51239	0.62604	-0.47934	0.34003	24.3	13111	100
2025-3-17 11:7:18.462	WT901BLE68(490AABDC0D29)	-0.648	-1.303	-0.232	-29.114	-53.284	-256.042	-103.08	5.21	-3.69	32.046	10.486	34.398	0.60922	-0.79126	-0.04672	-0.02100	22.5	13111	100
2025-3-17 11:7:18.538	WT901BLE68(E947F43FF2E9)	0.210	-0.889	-0.276	17.883	-9.216	-45.593	-102.73	-1.00	-71.93	-23.226	17.542	3.724	-0.51239	0.62604	-0.47934	0.34003	24.3	13111	100
2025-3-17 11:7:18.580	WT901BLE68(490AABDC0D29)	-0.588	-1.363	0.023	-31.006	-115.417	-127.625	-107.66	-10.13	8.91	32.046	10.486	34.398	0.60922	-0.79126	-0.04672	-0.02100	22.5	13111	100
2025-3-17 11:7:18.617	WT901BLE68(E947F43FF2E9)	0.506	-0.893	-0.292	8.667	2.808	-81.726	-101.83	-7.49	-71.58	-23.226	17.542	3.724	-0.51239	0.62604	-0.47934	0.34003	24.3	13111	100
2025-3-17 11:7:18.672	WT901BLE68(490AABDC0D29)	-0.694	-0.922	-0.230	16.724	-81.299	48.584	-109.67	-9.52	18.08	2.842	46.158	43.316	0.60922	-0.79126	-0.04672	-0.02100	22.5	13111	100
2025-3-17 11:7:18.739	WT901BLE68(E947F43FF2E9)	0.229	-0.974	-0.270	16.541	20.386	-75.806	-100.90	-16.28	-72.71	-23.226	17.542	3.724	-0.39499	0.66702	-0.33911	0.53287	24.3	13111	100
2025-3-17 11:7:18.823	WT901BLE68(490AABDC0D29)	0.181	-1.691	-0.074	15.808	-17.944	43.884	-107.79	-5.38	16.08	2.842	46.158	43.316	0.60922	-0.79126	-0.04672	-0.02100	22.5	13111	100
2025-3-17 11:7:18.859	WT901BLE68(E947F43FF2E9)	0.253	-1.713	-0.126	54.260	63.171	-150.452	-96.99	-27.77	-77.64	-23.226	17.542	3.724	-0.39499	0.66702	-0.33911	0.53287	24.3	13111	100
2025-3-17 11:7:18.881	WT901BLE68(490AABDC0D29)	-0.310	-1.307	-0.419	2.869	52.490	66.895	-106.15	0.44	10.80	2.842	46.158	43.316	0.60049	-0.79623	-0.03964	0.06091	22.5	13111	100
2025-3-17 11:7:18.947	WT901BLE68(E947F43FF2E9)	-0.144	0.291	0.126	63.293	-79.651	-42.175	-92.63	-36.68	-77.02	-35.672	-5.194	-1.274	-0.39499	0.66702	-0.33911	0.53287	24.3	13111	100
2025-3-17 11:7:19.1	WT901BLE68(490AABDC0D29)	-0.370	-0.950	-0.249	3.113	37.964	69.275	-105.57	5.97	4.37	2.842	46.158	43.316	0.60049	-0.79623	-0.03964	0.06091	22.5	13111	100
2025-3-17 11:7:19.8	WT901BLE68(E947F43FF2E9)	0.661	-0.590	-0.375	62.439	-155.396	190.430	-95.28	-25.47	-62.94	-35.672	-5.194	-1.274	-0.39499	0.66702	-0.33911	0.53287	24.3	13111	100
2025-3-17 11:7:19.61	WT901BLE68(490AABDC0D29)	-0.500	-0.826	-0.239	-0.977	1.404	61.218	-105.86	11.48	1.88	18.326	34.790	45.864	0.60049	-0.79623	-0.03964	0.06091	22.5	13111	100
2025-3-17 11:7:19.128	WT901BLE68(E947F43FF2E9)	0.658	-1.492	-0.542	3.662	-82.214	225.586	-96.37	-2.12	-52.49	-35.672	-5.194	-1.274	-0.63474	0.62534	-0.40192	0.21078	24.3	13111	100
2025-3-17 11:7:19.180	WT901BLE68(490AABDC0D29)	-0.541	-0.812	-0.268	-11.658	-18.982	57.007	-106.52	17.63	2.52	18.326	34.790	45.864	0.60049	-0.79623	-0.03964	0.06091	22.5	13111	100
2025-3-17 11:7:19.228	WT901BLE68(E947F43FF2E9)	0.054	-1.275	0.024	-25.635	36.011	150.208	-97.09	17.79	-53.70	-35.672	-5.194	-1.274	-0.63474	0.62534	-0.40192	0.21078	24.3	13111	100
2025-3-17 11:7:19.271	WT901BLE68(490AABDC0D29)	-0.690	-0.775	-0.292	-7.874	-29.602	75.928	-107.08	24.79	3.82	18.326	34.790	45.864	0.56470	-0.78308	0.12292	0.22949	22.5	13111	100
2025-3-17 11:7:19.338	WT901BLE68(E947F43FF2E9)	0.637	-0.944	-0.002	22.522	-110.107	-68.359	-98.31	20.98	-53.77	-12.152	26.754	13.622	-0.63474	0.62534	-0.40192	0.21078	24.3	13111	100
2025-3-17 11:7:19.390	WT901BLE68(490AABDC0D29)	-0.377	-0.970	-0.181	-2.625	-47.424	107.483	-107.01	34.18	5.10	18.326	34.790	45.864	0.56470	-0.78308	0.12292	0.22949	22.5	13111	100
2025-3-17 11:7:19.428	WT901BLE68(E947F43FF2E9)	-0.023	-1.438	-0.718	-21.729	-34.241	-84.351	-91.66	11.01	-39.37	-12.152	26.754	13.622	-0.63474	0.62534	-0.40192	0.21078	24.3	13111	100
2025-3-17 11:7:19.481	WT901BLE68(490AABDC0D29)	0.587	-0.728	-0.381	-11.353	-94.788	138.367	-102.96	49.48	13.10	32.340	7.448	34.202	0.56470	-0.78308	0.12292	0.22949	22.5	13111	100
2025-3-17 11:7:19.549	WT901BLE68(E947F43FF2E9)	0.322	-1.278	-0.798	-18.127	-37.231	-61.584	-92.49	1.61	-35.93	-12.152	26.754	13.622	-0.64856	0.69531	-0.20331	0.23328	24.3	13111	100
2025-3-17 11:7:19.599	WT901BLE68(490AABDC0D29)	0.055	0.292	-0.029	-62.866	-56.396	-53.711	-109.01	52.90	15.37	32.340	7.448	34.202	0.56470	-0.78308	0.12292	0.22949	22.5	13111	100
2025-3-17 11:7:19.608	WT901BLE68(E947F43FF2E9)	0.237	-0.813	-0.338	16.724	11.780	-17.334	-92.79	-3.57	-36.03	-12.152	26.754	13.622	-0.64856	0.69531	-0.20331	0.23328	24.3	13111	100
2025-3-17 11:7:19.692	WT901BLE68(490AABDC0D29)	-0.560	-0.981	-0.096	-61.340	13.489	-299.377	-106.36	28.27	27.86	32.340	7.448	34.202	0.54068	-0.77008	-0.24838	0.22989	22.5	13111	100
2025-3-17 11:7:19.727	WT901BLE68(E947F43FF2E9)	0.145	-0.829	-0.214	6.775	14.099	3.723	-92.09	-4.33	-38.28	-24.010	19.404	14.896	-0.64856	0.69531	-0.20331	0.23328	24.3	13111	100
2025-3-17 11:7:19.811	WT901BLE68(490AABDC0D29)	-0.847	-1.896	-0.212	-101.257	-110.229	-331.299	-110.24	-2.01	44.07	32.340	7.448	34.202	0.54068	-0.77008	-0.24838	0.22989	22.5	13111	100
2025-3-17 11:7:19.826	WT901BLE68(E947F43FF2E9)	0.175	-1.030	-0.142	6.653	4.944	-9.094	-92.16	-4.64	-40.36	-24.010	19.404	14.896	-0.64856	0.69531	-0.20331	0.23328	24.3	13111	100
2025-3-17 11:7:19.871	WT901BLE68(490AABDC0D29)	0.141	-1.199	0.225	-0.244	24.536	-50.293	-119.36	-16.69	59.83	-14.700	50.960	38.024	0.54068	-0.77008	-0.24838	0.22989	22.5	13111	100
2025-3-17 11:7:19.938	WT901BLE68(E947F43FF2E9)	-0.354	-1.160	-0.171	30.945	-6.470	-58.228	-90.70	-8.22	-41.86	-24.010	19.404	14.896	-0.63425	0.66940	-0.17468	0.34494	24.3	13111	100
2025-3-17 11:7:19.990	WT901BLE68(490AABDC0D29)	-0.014	-1.289	-0.331	-11.230	-29.541	19.287	-116.66	-18.83	50.06	-14.700	50.960	38.024	0.54068	-0.77008	-0.24838	0.22989	22.5	13111	100
2025-3-17 11:7:20.30	WT901BLE68(E947F43FF2E9)	0.206	-1.610	-0.482	49.133	31.128	-125.977	-86.43	-16.06	-44.86	-24.010	19.404	14.896	-0.63425	0.66940	-0.17468	0.34494	24.3	13111	100
2025-3-17 11:7:20.81	WT901BLE68(490AABDC0D29)	0.106	-0.868	-0.464	-14.160	-3.540	21.851	-115.94	-15.86	43.56	-14.700	50.960	38.024	0.52493	-0.76370	-0.36313	0.09616	22.5	13111	100
2025-3-17 11:7:20.149	WT901BLE68(E947F43FF2E9)	-0.275	-0.644	-0.313	49.011	-54.504	-119.934	-82.26	-27.92	-48.30	-36.750	0.784	13.426	-0.63425	0.66940	-0.17468	0.34494	24.3	13111	100
2025-3-17 11:7:20.199	WT901BLE68(490AABDC0D29)	0.026	-0.961	-0.427	0.732	-16.541	23.254	-116.28	-12.33	41.86	-14.700	50.960	38.024	0.52493	-0.76370	-0.36313	0.09616	22.5	13111	100
2025-3-17 11:7:20.236	WT901BLE68(E947F43FF2E9)	0.495	-0.060	-0.406	43.518	-161.377	35.095	-85.97	-32.32	-36.23	-36.750	0.784	13.426	-0.63425	0.66940	-0.17468	0.34494	24.3	13111	100
2025-3-17 11:7:20.292	WT901BLE68(490AABDC0D29)	0.011	-0.876	-0.331	6.531	-28.320	8.118	-115.23	-9.35	39.69	-9.800	50.960	38.710	0.52493	-0.76370	-0.36313	0.09616	22.5	13111	100
2025-3-17 11:7:20.360	WT901BLE68(E947F43FF2E9)	0.604	-0.567	-0.251	19.409	-110.107	130.188	-92.36	-21.42	-22.90	-36.750	0.784	13.426	-0.65851	0.73615	-0.04559	0.14920	24.3	13111	100
2025-3-17 11:7:20.409	WT901BLE68(490AABDC0D29)	0.077	-0.921	-0.354	-1.343	-19.165	-0.732	-114.87	-8.05	37.12	-9.800	50.960	38.710	0.52493	-0.76370	-0.36313	0.09616	22.5	13111	100
2025-3-17 11:7:20.431	WT901BLE68(E947F43FF2E9)	0.658	-0.958	-0.406	10.742	-77.759	124.084	-95.16	-8.60	-15.16	-36.750	0.784	13.426	-0.65851	0.73615	-0.04559	0.14920	24.3	13111	100
2025-3-17 11:7:20.469	WT901BLE68(490AABDC0D29)	-0.055	-0.920	-0.406	6.775	-23.804	9.399	-114.61	-6.83	35.32	-9.800	50.960	38.710	0.53076	-0.79706	-0.25879	0.12610	22.5	13111	100
2025-3-17 11:7:20.536	WT901BLE68(E947F43FF2E9)	0.309	-1.045	-0.233	-2.136	-16.052	103.455	-96.15	0.40	-9.59	-6.370	21.266	34.104	-0.65851	0.73615	-0.04559	0.14920	24.3	13111	100
2025-3-17 11:7:20.590	WT901BLE68(490AABDC0D29)	-0.035	-0.955	-0.312	6.836	-12.634	44.312	-113.76	-3.35	32.50	-9.800	50.960	38.710	0.53076	-0.79706	-0.25879	0.12610	22.5	13111	100
2025-3-17 11:7:20.632	WT901BLE68(E947F43FF2E9)	0.255	-1.001	-0.188	-15.686	-15.625	65.552	-97.34	7.31	-9.59	-6.370	21.266	34.104	-0.65851	0.73615	-0.04559	0.14920	24.3	13111	100
2025-3-17 11:7:20.681	WT901BLE68(490AABDC0D29)	-0.345	-0.933	-0.315	3.235	-21.423	76.965	-112.87	2.63	28.99	-0.392	48.412	35.280	0.53076	-0.79706	-0.25879	0.12610	22.5	13111	100
2025-3-17 11:7:20.749	WT901BLE68(E947F43FF2E9)	0.118	-0.784	-0.148	-11.047	6.470	17.883	-98.63	9.55	-8.54	-6.370	21.266	34.104	-0.64590	0.75562	-0.10822	0.00638	24.3	13111	100
2025-3-17 11:7:20.800	WT901BLE68(490AABDC0D29)	-0.252	-0.744	-0.375	-0.244	-29.358	77.148	-112.55	11.51	26.10	-0.392	48.412	35.280	0.53076	-0.79706	-0.25879	0.12610	22.5	13111	100
2025-3-17 11:7:20.838	WT901BLE68(E947F43FF2E9)	-0.034	-0.875	-0.057	-2.625	58.594	-20.325	-99.72	6.86	-10.64	-6.370	21.266	34.104	-0.64590	0.75562	-0.10822	0.00638	24.3	13111	100
2025-3-17 11:7:20.893	WT901BLE68(490AABDC0D29)	-0.551	-0.983	-0.296	-4.333	-24.353	87.585	-113.30	19.35	21.73	-0.392	48.412	35.280	0.49152	-0.82654	-0.01361	0.27374	22.5	13111	100
2025-3-17 11:7:20.958	WT901BLE68(E947F43FF2E9)	-0.208	-0.892	-0.386	28.198	-10.193	-71.899	-98.38	0.00	-13.78	-10.290	20.286	33.614	-0.64590	0.75562	-0.10822	0.00638	24.3	13111	100
2025-3-17 11:7:21.9	WT901BLE68(490AABDC0D29)	-0.257	-1.767	-0.246	-13.916	-65.369	128.418	-114.34	29.82	18.47	-0.392	48.412	35.280	0.49152	-0.82654	-0.01361	0.27374	22.5	13111	100
2025-3-17 11:7:21.16	WT901BLE68(E947F43FF2E9)	0.078	-0.949	-0.441	13.550	-43.335	-70.435	-96.98	-5.16	-9.18	-10.290	20.286	33.614	-0.64590	0.75562	-0.10822	0.00638	24.3	13111	100
2025-3-17 11:7:21.101	WT901BLE68(490AABDC0D29)	0.586	-0.072	-0.304	-36.377	21.179	65.613	-114.19	43.15	20.26	21.168	32.732	28.616	0.49152	-0.82654	-0.01361	0.27374	22.5	13111	100
2025-3-17 11:7:21.137	WT901BLE68(E947F43FF2E9)	0.100	-1.084	-0.374	19.165	-50.964	-68.359	-97.24	-10.23	-4.52	-10.290	20.286	33.614	-0.65607	0.74557	0.06619	0.09598	24.3	13111	100
2025-3-17 11:7:21.219	WT901BLE68(490AABDC0D29)	-0.710	-0.075	0.002	-16.052	-92.957	-248.596	-109.64	32.71	33.46	21.168	32.732	28.616	0.49152	-0.82654	-0.01361	0.27374	22.5	13111	100
2025-3-17 11:7:21.232	WT901BLE68(E947F43FF2E9)	0.352	-1.000	-0.201	6.714	-13.428	-53.589	-97.10	-14.52	-1.19	-10.290	20.286	33.614	-0.65607	0.74557	0.06619	0.09598	24.3	13111	100
2025-3-17 11:7:21.281	WT901BLE68(490AABDC0D29)	-0.823	-0.917	-0.443	-53.223	11.963	-257.263	-107.81	5.78	43.04	21.168	32.732	28.616	0.52310	-0.73108	-0.39508	0.18887	22.5	13111	100
2025-3-17 11:7:21.346	WT901BLE68(E947F43FF2E9)	0.486	-0.987	-0.135	0.061	14.404	-70.129	-97.38	-20.37	-0.94	-21.070	11.858	35.084	-0.65607	0.74557	0.06619	0.09598	24.3	13111	100
2025-3-17 11:7:21.400	WT901BLE68(490AABDC0D29)	0.000	-1.386	0.088	-56.213	-201.294	-131.470	-113.58	-8.43	54.22	21.168	32.732	28.616	0.52310	-0.73108	-0.39508	0.18887	22.5	13111	100
2025-3-17 11:7:21.438	WT901BLE68(E947F43FF2E9)	0.639	-1.104	-0.233	-0.427	29.175	-78.247	-97.33	-27.71	-2.86	-21.070	11.858	35.084	-0.65607	0.74557	0.06619	0.09598	24.3	13111	100
2025-3-17 11:7:21.491	WT901BLE68(490AABDC0D29)	0.151	-0.803	-0.441	14.160	58.411	39.856	-113.16	-7.00	55.93	-24.598	51.548	30.968	0.52310	-0.73108	-0.39508	0.18887	22.5	13111	100
2025-3-17 11:7:21.557	WT901BLE68(E947F43FF2E9)	0.120	-1.778	-0.284	-1.831	52.246	-112.244	-95.66	-36.37	-7.61	-21.070	11.858	35.084	-0.59842	0.67853	0.19128	0.38046	24.3	13111	100
2025-3-17 11:7:21.609	WT901BLE68(490AABDC0D29)	0.000	-1.115	-0.357	16.479	53.528	88.074	-108.74	-5.69	43.40	-24.598	51.548	30.968	0.52310	-0.73108	-0.39508	0.18887	22.5	13111	100
2025-3-17 11:7:21.618	WT901BLE68(E947F43FF2E9)	-0.278	0.112	-0.180	-6.897	18.982	-53.894	-89.37	-48.48	-17.57	-21.070	11.858	35.084	-0.59842	0.67853	0.19128	0.38046	24.3	13111	100
2025-3-17 11:7:21.701	WT901BLE68(490AABDC0D29)	-0.309	-1.376	-0.132	17.700	26.489	79.102	-107.10	-0.41	29.64	-24.598	51.548	30.968	0.58279	-0.78610	-0.13751	0.15286	22.5	13111	100
2025-3-17 11:7:21.770	WT901BLE68(E947F43FF2E9)	0.709	-0.183	-0.234	34.180	-117.920	190.430	-92.78	-39.58	-11.63	-23.128	10.192	35.574	-0.59842	0.67853	0.19128	0.38046	24.3	13111	100
2025-3-17 11:7:21.819	WT901BLE68(490AABDC0D29)	-0.173	-1.027	-0.145	7.629	-4.944	58.228	-105.79	5.91	21.70	-24.598	51.548	30.968	0.58279	-0.78610	-0.13751	0.15286	22.5	13111	100
2025-3-17 11:7:21.833	WT901BLE68(E947F43FF2E9)	0.849	-1.466	-0.333	-9.888	-57.007	231.323	-97.12	-13.47	-4.95	-23.128	10.192	35.574	-0.59842	0.67853	0.19128	0.38046	24.3	13111	100
2025-3-17 11:7:21.879	WT901BLE68(490AABDC0D29)	-0.415	-1.044	-0.176	6.042	-13.489	59.814	-104.75	11.48	17.44	0.490	47.628	25.578	0.58279	-0.78610	-0.13751	0.15286	22.5	13111	100
2025-3-17 11:7:21.947	WT901BLE68(E947F43FF2E9)	0.410	-1.279	-0.191	-0.244	6.287	160.156	-97.79	8.76	-6.46	-23.128	10.192	35.574	-0.59842	0.67853	0.19128	0.38046	24.3	13111	100
2025-3-17 11:7:22.0	WT901BLE68(490AABDC0D29)	-0.645	-0.916	-0.246	13.855	-17.334	77.698	-103.75	18.68	13.62	0.490	47.628	25.578	0.58279	-0.78610	-0.13751	0.15286	22.5	13111	100
2025-3-17 11:7:22.39	WT901BLE68(E947F43FF2E9)	-0.628	-0.893	0.011	18.311	8.179	-63.660	-98.54	11.06	-9.59	-23.128	10.192	35.574	-0.65405	0.74619	-0.12271	-0.01605	24.3	13111	100
2025-3-17 11:7:22.90	WT901BLE68(490AABDC0D29)	-0.330	-1.337	-0.025	24.475	-55.420	113.525	-101.47	28.28	11.49	0.490	47.628	25.578	0.58942	-0.73471	0.12717	0.31064	22.5	13111	100
2025-3-17 11:7:22.159	WT901BLE68(E947F43FF2E9)	-0.140	-1.217	-0.392	5.981	18.433	-71.838	-97.18	2.14	-6.03	-9.898	22.050	40.180	-0.65405	0.74619	-0.12271	-0.01605	24.3	13111	100
2025-3-17 11:7:22.209	WT901BLE68(490AABDC0D29)	0.952	-0.465	-0.478	14.832	-50.659	122.070	-95.40	43.33	15.66	0.490	47.628	25.578	0.58942	-0.73471	0.12717	0.31064	22.5	13111	100
2025-3-17 11:7:22.249	WT901BLE68(E947F43FF2E9)	0.211	-1.387	-0.223	5.371	-23.438	-31.860	-98.27	-2.85	-4.48	-9.898	22.050	40.180	-0.65405	0.74619	-0.12271	-0.01605	24.3	13111	100
2025-3-17 11:7:22.301	WT901BLE68(490AABDC0D29)	-0.436	-0.040	-0.255	-7.874	104.492	-182.129	-100.04	38.96	13.89	12.642	40.278	22.638	0.58942	-0.73471	0.12717	0.31064	22.5	13111	100
2025-3-17 11:7:22.370	WT901BLE68(E947F43FF2E9)	0.065	-0.895	-0.191	9.827	-1.282	-4.028	-97.74	-4.93	-3.36	-9.898	22.050	40.180	-0.65561	0.75275	-0.00198	0.05878	24.3	13111	100
2025-3-17 11:7:22.419	WT901BLE68(490AABDC0D29)	-1.080	-1.247	-0.398	-44.373	25.757	-302.490	-104.13	9.75	15.46	12.642	40.278	22.638	0.58942	-0.73471	0.12717	0.31064	22.5	13111	100
2025-3-17 11:7:22.436	WT901BLE68(E947F43FF2E9)	0.054	-0.917	-0.161	-0.671	10.864	-0.549	-97.70	-4.94	-4.69	-9.898	22.050	40.180	-0.65561	0.75275	-0.00198	0.05878	24.3	13111	100
2025-3-17 11:7:22.511	WT901BLE68(490AABDC0D29)	-0.741	-1.908	-0.087	-105.774	-165.466	-253.174	-113.22	-15.42	29.40	12.642	40.278	22.638	0.51071	-0.77417	-0.37314	0.02209	22.5	13111	100
2025-3-17 11:7:22.546	WT901BLE68(E947F43FF2E9)	0.141	-1.016	-0.207	2.686	11.719	-26.794	-97.79	-6.48	-6.38	-9.898	22.050	40.180	-0.65561	0.75275	-0.00198	0.05878	24.3	13111	100
2025-3-17 11:7:22.639	WT901BLE68(490AABDC0D29)	0.114	-1.133	0.334	2.747	22.644	-0.977	-119.93	-20.58	38.60	12.642	40.278	22.638	0.51071	-0.77417	-0.37314	0.02209	22.5	13111	100
2025-3-17 11:7:22.639	WT901BLE68(E947F43FF2E9)	0.065	-1.064	-0.101	13.428	13.550	-46.753	-96.92	-10.54	-7.89	-16.366	20.188	38.808	-0.65561	0.75275	-0.00198	0.05878	24.3	13111	100
2025-3-17 11:7:22.690	WT901BLE68(490AABDC0D29)	-0.005	-1.426	-0.252	-5.371	26.001	24.597	-116.07	-21.11	27.93	-36.946	56.252	36.456	0.51071	-0.77417	-0.37314	0.02209	22.5	13111	100
2025-3-17 11:7:22.757	WT901BLE68(E947F43FF2E9)	0.156	-1.244	-0.333	31.067	25.574	-75.623	-94.65	-16.32	-9.40	-16.366	20.188	38.808	-0.65561	0.75275	-0.00198	0.05878	24.3	13111	100
2025-3-17 11:7:22.809	WT901BLE68(490AABDC0D29)	0.076	-0.822	-0.403	9.216	-31.555	16.113	-113.36	-18.84	20.76	-36.946	56.252	36.456	0.51071	-0.77417	-0.37314	0.02209	22.5	13111	100
2025-3-17 11:7:22.846	WT901BLE68(E947F43FF2E9)	0.776	-1.318	-0.002	18.005	36.926	-130.310	-91.87	-26.47	-12.74	-16.366	20.188	38.808	-0.65363	0.71039	0.08600	0.24615	24.3	13111	100
2025-3-17 11:7:22.900	WT901BLE68(490AABDC0D29)	-0.032	-0.930	-0.379	-2.014	-37.964	18.860	-113.29	-15.19	19.33	-36.946	56.252	36.456	0.55463	-0.81104	-0.18567	-0.00378	22.5	13111	100
2025-3-17 11:7:23.0	WT901BLE68(E947F43FF2E9)	0.039	-0.558	-0.028	55.054	-132.690	-105.408	-92.53	-36.19	-5.73	-27.636	12.544	36.554	-0.65363	0.71039	0.08600	0.24615	24.3	13111	100
2025-3-17 11:7:23.38	WT901BLE68(E947F43FF2E9)	0.392	-0.494	-0.186	113.647	-89.844	75.684	-91.72	-34.00	4.99	-27.636	12.544	36.554	-0.65363	0.71039	0.08600	0.24615	24.3	13111	100
2025-3-17 11:7:23.51	WT901BLE68(490AABDC0D29)	-0.059	-0.937	-0.398	5.981	-47.363	2.319	-113.16	-12.12	17.67	-36.946	56.252	36.456	0.55463	-0.81104	-0.18567	-0.00378	22.5	13111	100
2025-3-17 11:7:23.110	WT901BLE68(490AABDC0D29)	-0.013	-0.877	-0.357	15.564	-28.809	-16.113	-112.30	-10.93	17.19	-36.946	56.252	36.456	0.55463	-0.81104	-0.18567	-0.00378	22.5	13111	100
2025-3-17 11:7:23.178	WT901BLE68(E947F43FF2E9)	1.066	-1.225	-0.718	120.361	-395.935	101.807	-90.55	-19.31	27.30	-27.636	12.544	36.554	-0.64075	0.55045	0.45386	-0.28345	24.3	13111	100
2025-3-17 11:7:23.239	WT901BLE68(490AABDC0D29)	0.045	-0.962	-0.356	4.028	-32.043	-29.175	-111.74	-11.94	14.94	-36.750	56.252	36.750	0.55463	-0.81104	-0.18567	-0.00378	22.5	13111	100
2025-3-17 11:7:23.239	WT901BLE68(E947F43FF2E9)	0.590	-0.638	-0.967	60.120	-227.173	-25.269	-91.19	-15.80	64.92	-27.636	12.544	36.554	-0.64075	0.55045	0.45386	-0.28345	24.3	13111	100
2025-3-17 11:7:23.290	WT901BLE68(490AABDC0D29)	0.000	-0.948	-0.318	20.508	-30.151	-17.334	-110.85	-12.71	13.60	-36.750	56.252	36.750	0.58191	-0.79788	-0.15424	-0.02930	22.5	13111	100
2025-3-17 11:7:23.357	WT901BLE68(E947F43FF2E9)	0.003	-0.567	-0.597	8.057	-107.910	-13.062	-95.39	-19.67	83.54	-27.636	12.544	36.554	-0.64075	0.55045	0.45386	-0.28345	24.3	13111	100
2025-3-17 11:7:23.409	WT901BLE68(490AABDC0D29)	0.039	-0.963	-0.268	26.367	-24.414	-20.325	-108.76	-13.23	12.21	-36.750	56.252	36.750	0.58191	-0.79788	-0.15424	-0.02930	22.5	13111	100
2025-3-17 11:7:23.447	WT901BLE68(E947F43FF2E9)	0.167	-1.238	0.168	-9.827	-0.671	40.222	-99.27	-18.40	88.67	22.442	38.416	14.798	-0.64075	0.55045	0.45386	-0.28345	24.3	13111	100
2025-3-17 11:7:23.499	WT901BLE68(490AABDC0D29)	-0.090	-0.977	-0.247	22.095	-56.946	-19.409	-106.76	-13.54	12.46	-46.452	52.528	35.574	0.58191	-0.79788	-0.15424	-0.02930	22.5	13111	100
2025-3-17 11:7:23.568	WT901BLE68(E947F43FF2E9)	0.262	-0.940	-0.236	-7.751	-9.888	13.306	-101.21	-15.28	91.28	22.442	38.416	14.798	-0.64075	0.55045	0.45386	-0.28345	24.3	13111	100
2025-3-17 11:7:23.623	WT901BLE68(490AABDC0D29)	0.000	-1.062	-0.022	32.532	-231.750	-61.279	-106.83	-13.34	21.19	-46.452	52.528	35.574	0.58191	-0.79788	-0.15424	-0.02930	22.5	13111	100
2025-3-17 11:7:23.657	WT901BLE68(E947F43FF2E9)	0.176	-0.989	-0.196	-8.179	-26.306	2.014	-102.87	-14.16	93.41	22.442	38.416	14.798	-0.49228	0.47659	0.61841	-0.38464	24.3	13111	100
2025-3-17 11:7:23.708	WT901BLE68(490AABDC0D29)	-0.001	-1.032	-0.230	18.677	-402.893	-115.051	-110.11	-11.05	48.28	-46.452	52.528	35.574	0.58191	-0.79788	-0.15424	-0.02930	22.5	13111	100
2025-3-17 11:7:23.777	WT901BLE68(E947F43FF2E9)	0.063	-0.958	-0.206	-3.845	-6.958	9.705	-103.44	-13.25	93.40	27.832	37.632	14.112	-0.49228	0.47659	0.61841	-0.38464	24.3	13111	100
2025-3-17 11:7:23.828	WT901BLE68(490AABDC0D29)	-0.227	-0.996	-0.107	28.137	-254.578	-58.960	-111.88	-7.45	77.62	-46.452	52.528	35.574	0.46915	-0.62134	-0.54651	0.30832	22.5	13111	100
2025-3-17 11:7:23.837	WT901BLE68(E947F43FF2E9)	0.095	-0.981	-0.274	-1.038	-3.540	-1.526	-103.74	-12.11	93.02	27.832	37.632	14.112	-0.49228	0.47659	0.61841	-0.38464	24.3	13111	100
2025-3-17 11:7:23.950	WT901BLE68(490AABDC0D29)	-0.073	-0.899	-0.453	42.847	-251.282	-30.212	-109.29	-2.94	95.42	-46.452	52.528	35.574	0.46915	-0.62134	-0.54651	0.30832	22.5	13111	100
2025-3-17 11:7:23.956	WT901BLE68(E947F43FF2E9)	0.139	-0.991	-0.201	11.841	-28.320	-25.391	-103.02	-12.71	93.14	27.832	37.632	14.112	-0.49228	0.47659	0.61841	-0.38464	24.3	13111	100
2025-3-17 11:7:24.38	WT901BLE68(490AABDC0D29)	0.299	-0.780	-0.397	8.179	-118.042	-0.916	-106.17	2.08	109.93	-26.754	48.412	76.538	0.46915	-0.62134	-0.54651	0.30832	22.5	13111	100
2025-3-17 11:7:24.46	WT901BLE68(E947F43FF2E9)	0.140	-0.994	-0.187	30.396	-10.132	-23.010	-101.33	-14.27	94.41	27.832	37.632	14.112	-0.49777	0.46359	0.61661	-0.39621	24.3	13111	100
2025-3-17 11:7:24.99	WT901BLE68(490AABDC0D29)	-0.039	-0.910	-0.316	-7.690	88.074	20.081	-106.48	3.63	102.37	-26.754	48.412	76.538	0.38449	-0.56470	-0.59885	0.41776	22.5	13111	100
2025-3-17 11:7:24.168	WT901BLE68(E947F43FF2E9)	0.110	-1.103	-0.122	49.927	-5.798	-22.339	-97.59	-16.04	95.06	27.832	37.632	14.112	-0.49777	0.46359	0.61661	-0.39621	24.3	13111	100
2025-3-17 11:7:24.226	WT901BLE68(490AABDC0D29)	-0.071	-0.861	-0.314	0.061	16.846	17.517	-111.04	0.70	92.83	-26.754	48.412	76.538	0.38449	-0.56470	-0.59885	0.41776	22.5	13111	100
2025-3-17 11:7:24.257	WT901BLE68(E947F43FF2E9)	0.047	-1.104	-0.258	56.152	-29.114	-50.415	-93.30	-18.73	98.36	19.600	39.298	2.156	-0.49777	0.46359	0.61661	-0.39621	24.3	13111	100
2025-3-17 11:7:24.309	WT901BLE68(490AABDC0D29)	0.037	-0.934	-0.172	-16.724	10.254	20.264	-112.87	1.68	87.13	-26.068	49.098	78.988	0.38449	-0.56470	-0.59885	0.41776	22.5	13111	100
2025-3-17 11:7:24.377	WT901BLE68(E947F43FF2E9)	0.891	-1.288	-0.278	53.589	1.770	-73.975	-89.31	-23.69	100.83	19.600	39.298	2.156	-0.49777	0.46359	0.61661	-0.39621	24.3	13111	100
2025-3-17 11:7:24.429	WT901BLE68(490AABDC0D29)	-0.026	-0.992	-0.293	-30.273	-38.879	5.676	-115.66	2.72	83.14	-26.068	49.098	78.988	0.38449	-0.56470	-0.59885	0.41776	22.5	13111	100
2025-3-17 11:7:24.439	WT901BLE68(E947F43FF2E9)	0.436	-0.952	-0.359	63.232	-92.712	-67.871	-86.12	-30.34	106.00	19.600	39.298	2.156	-0.55627	0.21790	0.65503	-0.46252	24.3	13111	100
2025-3-17 11:7:24.529	WT901BLE68(490AABDC0D29)	-0.101	-0.962	-0.408	-8.606	-33.020	5.066	-117.58	4.21	80.71	-26.068	49.098	78.988	0.38449	-0.56470	-0.59885	0.41776	22.5	13111	100
2025-3-17 11:7:24.588	WT901BLE68(E947F43FF2E9)	0.371	-0.772	-0.765	-20.569	-199.463	-8.301	-100.65	-33.74	133.96	2.450	35.966	1.274	-0.55627	0.21790	0.65503	-0.46252	24.3	13111	100
2025-3-17 11:7:24.639	WT901BLE68(490AABDC0D29)	-0.056	-0.924	-0.281	7.080	-4.211	6.897	-116.43	5.00	76.54	-26.068	49.098	78.988	0.39117	-0.68176	-0.50629	0.35461	22.5	13111	100
2025-3-17 11:7:24.646	WT901BLE68(E947F43FF2E9)	0.615	-0.876	-0.250	-35.217	-93.384	108.337	-110.06	-23.54	145.94	2.450	35.966	1.274	-0.55627	0.21790	0.65503	-0.46252	24.3	13111	100
2025-3-17 11:7:24.772	WT901BLE68(490AABDC0D29)	-0.007	-0.974	-0.275	9.277	-6.348	11.597	-115.03	5.28	71.34	-26.068	49.098	78.988	0.39117	-0.68176	-0.50629	0.35461	22.5	13111	100
2025-3-17 11:7:24.773	WT901BLE68(E947F43FF2E9)	0.884	-0.733	-0.078	2.747	-153.442	105.652	-114.44	-8.37	153.06	2.450	35.966	1.274	-0.55627	0.21790	0.65503	-0.46252	24.3	13111	100
2025-3-17 11:7:24.830	WT901BLE68(490AABDC0D29)	-0.304	-0.984	-0.223	11.658	-4.883	43.884	-113.52	7.28	66.27	-18.424	49.980	78.498	0.39117	-0.68176	-0.50629	0.35461	22.5	13111	100
2025-3-17 11:7:24.859	WT901BLE68(E947F43FF2E9)	1.000	-0.649	-0.182	33.569	-87.769	38.086	-112.62	0.88	157.31	2.450	35.966	1.274	-0.10291	0.14313	0.81335	-0.55432	24.3	13111	100
2025-3-17 11:7:24.909	WT901BLE68(490AABDC0D29)	0.034	-1.041	-0.201	16.235	-20.935	44.861	-112.12	11.50	60.70	-18.424	49.980	78.498	0.44595	-0.74600	-0.32788	0.37015	22.5	13111	100
2025-3-17 11:7:24.978	WT901BLE68(E947F43FF2E9)	0.394	-2.141	-0.116	-5.615	-7.629	-128.967	-111.97	-4.50	160.89	2.450	35.966	1.274	-0.10291	0.14313	0.81335	-0.55432	24.3	13111	100
2025-3-17 11:7:25.29	WT901BLE68(490AABDC0D29)	-0.178	-1.348	-0.364	28.687	-40.649	38.086	-109.54	15.46	57.86	-18.424	49.980	78.498	0.44595	-0.74600	-0.32788	0.37015	22.5	13111	100
2025-3-17 11:7:25.67	WT901BLE68(E947F43FF2E9)	0.327	-1.136	-0.179	7.629	3.784	-44.434	-109.95	-12.95	157.99	11.074	33.320	-4.116	-0.10291	0.14313	0.81335	-0.55432	24.3	13111	100
2025-3-17 11:7:25.131	WT901BLE68(490AABDC0D29)	-1.172	-1.258	-0.324	8.606	-52.124	97.778	-107.02	21.28	55.58	-18.424	49.980	78.498	0.44595	-0.74600	-0.32788	0.37015	22.5	13111	100
2025-3-17 11:7:25.188	WT901BLE68(E947F43FF2E9)	0.209	-0.948	-0.222	7.019	-8.972	-1.709	-109.29	-15.12	156.85	11.074	33.320	-4.116	-0.21817	0.10229	0.80319	-0.54471	24.3	13111	100
2025-3-17 11:7:25.239	WT901BLE68(490AABDC0D29)	-0.379	-1.769	-0.256	-45.166	-45.654	128.052	-109.29	31.59	52.05	6.076	42.336	71.344	0.44595	-0.74600	-0.32788	0.37015	22.5	13111	100
2025-3-17 11:7:25.248	WT901BLE68(E947F43FF2E9)	0.141	-1.007	-0.224	2.991	-6.226	29.602	-108.66	-13.69	155.43	11.074	33.320	-4.116	-0.21817	0.10229	0.80319	-0.54471	24.3	13111	100
2025-3-17 11:7:25.301	WT901BLE68(490AABDC0D29)	0.088	-0.870	-0.067	-27.100	19.592	104.614	-115.73	41.52	42.56	6.076	42.336	71.344	0.44595	-0.74600	-0.32788	0.37015	22.5	13111	100
2025-3-17 11:7:25.368	WT901BLE68(E947F43FF2E9)	-0.077	-0.946	-0.248	-6.470	20.752	45.349	-108.30	-10.78	151.97	11.074	33.320	-4.116	-0.21817	0.10229	0.80319	-0.54471	24.3	13111	100
2025-3-17 11:7:25.450	WT901BLE68(490AABDC0D29)	-0.384	-0.021	0.107	-12.390	92.407	-32.471	-125.01	39.86	29.19	6.076	42.336	71.344	0.34671	-0.84982	-0.05704	0.39270	22.5	13111	100
2025-3-17 11:7:25.459	WT901BLE68(E947F43FF2E9)	0.007	-1.017	-0.231	-2.319	47.302	28.442	-107.81	-7.89	145.77	15.974	32.732	-4.998	-0.21817	0.10229	0.80319	-0.54471	24.3	13111	100
2025-3-17 11:7:25.509	WT901BLE68(490AABDC0D29)	-1.711	0.085	-0.065	44.678	76.660	-170.959	-121.97	24.30	26.40	-7.644	34.888	78.988	0.34671	-0.84982	-0.05704	0.39270	22.5	13111	100
2025-3-17 11:7:25.578	WT901BLE68(E947F43FF2E9)	0.227	-1.059	-0.165	8.362	-4.272	-30.762	-107.08	-8.49	143.64	15.974	32.732	-4.998	-0.21817	0.10229	0.80319	-0.54471	24.3	13111	100
2025-3-17 11:7:25.630	WT901BLE68(490AABDC0D29)	0.317	-0.602	-0.528	26.550	39.185	-38.635	-115.44	12.48	25.00	-7.644	34.888	78.988	0.34671	-0.84982	-0.05704	0.39270	22.5	13111	100
2025-3-17 11:7:25.667	WT901BLE68(E947F43FF2E9)	-0.448	-1.039	-0.303	14.038	12.695	-26.367	-105.69	-11.57	142.78	15.974	32.732	-4.998	-0.27045	0.19464	0.77008	-0.54388	24.3	13111	100
2025-3-17 11:7:25.733	WT901BLE68(490AABDC0D29)	-0.369	-1.738	-0.223	-10.620	-63.904	-5.798	-113.11	16.03	24.75	-7.644	34.888	78.988	0.51718	-0.82318	-0.07373	0.22214	22.5	13111	100
2025-3-17 11:7:25.787	WT901BLE68(E947F43FF2E9)	1.707	-1.587	-0.245	9.460	47.302	-21.118	-103.96	-13.60	140.14	15.974	32.732	-4.998	-0.27045	0.19464	0.77008	-0.54388	24.3	13111	100
2025-3-17 11:7:25.839	WT901BLE68(490AABDC0D29)	-0.279	-0.988	-0.337	-1.587	-2.258	-26.245	-112.46	16.74	21.43	-7.644	34.888	78.988	0.51718	-0.82318	-0.07373	0.22214	22.5	13111	100
2025-3-17 11:7:25.848	WT901BLE68(E947F43FF2E9)	-0.170	-1.796	-0.397	-10.559	74.158	-167.603	-103.28	-21.37	138.49	6.076	32.340	-5.880	-0.27045	0.19464	0.77008	-0.54388	24.3	13111	100
2025-3-17 11:7:25.935	WT901BLE68(490AABDC0D29)	-0.151	-0.888	-0.298	13.245	20.752	-32.288	-110.76	13.95	18.55	-7.644	34.888	78.988	0.51718	-0.82318	-0.07373	0.22214	22.5	13111	100
2025-3-17 11:7:25.997	WT901BLE68(E947F43FF2E9)	-0.803	-1.252	-0.231	-12.329	117.249	-160.278	-98.83	-40.07	126.10	6.076	32.340	-5.880	-0.27045	0.19464	0.77008	-0.54388	24.3	13111	100
2025-3-17 11:7:26.49	WT901BLE68(490AABDC0D29)	-0.153	-0.968	-0.205	7.935	4.395	-33.569	-109.46	10.67	15.99	-16.268	39.200	76.342	0.51718	-0.82318	-0.07373	0.22214	22.5	13111	100
2025-3-17 11:7:26.58	WT901BLE68(E947F43FF2E9)	0.094	0.001	-0.068	-96.924	-63.599	46.387	-108.30	-45.59	133.74	6.076	32.340	-5.880	-0.47165	0.09857	0.79449	-0.36948	24.3	13111	100
2025-3-17 11:7:26.111	WT901BLE68(490AABDC0D29)	-0.093	-0.886	-0.317	7.629	-22.644	-14.099	-108.61	8.89	14.74	-16.268	39.200	76.342	0.51718	-0.82318	-0.07373	0.22214	22.5	13111	100
2025-3-17 11:7:26.178	WT901BLE68(E947F43FF2E9)	1.199	-0.303	-0.240	-95.093	-27.527	239.685	-121.33	-26.31	138.87	6.076	32.340	-5.880	-0.47165	0.09857	0.79449	-0.36948	24.3	13111	100
2025-3-17 11:7:26.236	WT901BLE68(490AABDC0D29)	-0.272	-0.979	-0.270	13.000	-2.380	20.447	-107.15	10.26	14.43	-16.268	39.200	76.342	0.57861	-0.80124	-0.04422	0.14545	22.5	13111	100
2025-3-17 11:7:26.267	WT901BLE68(E947F43FF2E9)	-1.003	-1.233	0.323	-32.410	-10.803	171.936	-125.57	-7.35	125.47	15.582	30.478	13.426	-0.47165	0.09857	0.79449	-0.36948	24.3	13111	100
2025-3-17 11:7:26.319	WT901BLE68(490AABDC0D29)	0.185	-1.046	-0.314	16.968	-5.310	33.447	-105.98	12.91	11.26	-12.740	41.650	72.422	0.57861	-0.80124	-0.04422	0.14545	22.5	13111	100
2025-3-17 11:7:26.387	WT901BLE68(E947F43FF2E9)	0.458	-1.928	-0.265	11.841	43.518	-22.766	-123.55	-3.44	122.84	15.582	30.478	13.426	-0.47165	0.09857	0.79449	-0.36948	24.3	13111	100
2025-3-17 11:7:26.439	WT901BLE68(490AABDC0D29)	-0.616	-1.644	-0.369	24.597	-82.214	31.372	-103.53	16.00	11.38	-12.740	41.650	72.422	0.57861	-0.80124	-0.04422	0.14545	22.5	13111	100
2025-3-17 11:7:26.477	WT901BLE68(E947F43FF2E9)	0.196	-1.298	-0.197	29.724	-11.658	-29.724	-120.26	-7.16	124.07	15.582	30.478	13.426	-0.28592	0.37570	0.77795	-0.41443	24.3	13111	100
2025-3-17 11:7:26.536	WT901BLE68(490AABDC0D29)	-0.022	-1.461	-0.187	16.174	73.792	139.526	-101.02	24.21	13.74	-12.740	41.650	72.422	0.57861	-0.80124	-0.04422	0.14545	22.5	13111	100
2025-3-17 11:7:26.597	WT901BLE68(E947F43FF2E9)	0.123	-0.927	-0.261	-13.733	42.908	1.953	-119.04	-10.09	120.93	15.582	30.478	13.426	-0.28592	0.37570	0.77795	-0.41443	24.3	13111	100
2025-3-17 11:7:26.650	WT901BLE68(490AABDC0D29)	0.191	-1.317	-0.437	52.856	199.219	249.634	-106.33	41.85	-6.00	-12.740	41.650	72.422	0.57410	-0.73532	0.25293	0.25616	22.5	13111	100
2025-3-17 11:7:26.659	WT901BLE68(E947F43FF2E9)	0.073	-0.889	-0.438	-9.094	36.377	31.738	-119.32	-10.60	115.34	22.932	29.694	12.446	-0.28592	0.37570	0.77795	-0.41443	24.3	13111	100
2025-3-17 11:7:26.711	WT901BLE68(490AABDC0D29)	0.096	-0.471	-0.453	84.900	50.293	57.068	-116.00	51.92	-28.13	-12.740	41.650	72.422	0.57410	-0.73532	0.25293	0.25616	22.5	13111	100
2025-3-17 11:7:26.778	WT901BLE68(E947F43FF2E9)	0.033	-0.878	-0.319	-2.625	30.823	35.339	-118.37	-9.34	109.17	22.932	29.694	12.446	-0.28592	0.37570	0.77795	-0.41443	24.3	13111	100
2025-3-17 11:7:26.861	WT901BLE68(490AABDC0D29)	-0.598	-0.170	-0.782	96.008	66.772	-125.122	-107.88	44.43	-27.83	7.448	35.574	67.032	0.57410	-0.73532	0.25293	0.25616	22.5	13111	100
2025-3-17 11:7:26.868	WT901BLE68(E947F43FF2E9)	-0.179	-0.974	-0.409	-5.066	25.696	10.986	-118.33	-8.44	104.74	22.932	29.694	12.446	-0.36679	0.49908	0.69501	-0.36499	24.3	13111	100
2025-3-17 11:7:26.919	WT901BLE68(490AABDC0D29)	-1.394	-0.252	-0.875	30.823	161.438	-218.872	-108.67	22.53	-38.10	7.448	35.574	67.032	0.57410	-0.73532	0.25293	0.25616	22.5	13111	100
2025-3-17 11:7:26.989	WT901BLE68(E947F43FF2E9)	0.356	-1.087	-0.350	19.226	29.968	-42.725	-116.56	-10.56	101.04	22.932	29.694	12.446	-0.36679	0.49908	0.69501	-0.36499	24.3	13111	100
2025-3-17 11:7:27.39	WT901BLE68(490AABDC0D29)	-0.178	-0.816	-0.231	9.521	127.625	-150.818	-110.12	1.12	-46.24	7.448	35.574	67.032	0.52151	-0.75156	0.32632	-0.23782	22.5	13111	100
2025-3-17 11:7:27.77	WT901BLE68(E947F43FF2E9)	0.344	-0.882	-0.264	3.174	8.545	-56.213	-115.30	-15.45	102.14	21.168	29.694	14.210	-0.36679	0.49908	0.69501	-0.36499	24.3	13111	100
2025-3-17 11:7:27.139	WT901BLE68(490AABDC0D29)	-0.617	-1.143	0.164	23.376	-26.428	99.609	-109.04	1.72	-57.04	-32.438	45.374	54.292	0.52151	-0.75156	0.32632	-0.23782	22.5	13111	100
2025-3-17 11:7:27.197	WT901BLE68(E947F43FF2E9)	-0.483	-1.141	-0.463	-2.075	44.922	-13.672	-114.75	-19.47	99.43	21.168	29.694	14.210	-0.36679	0.49908	0.69501	-0.36499	24.3	13111	100
2025-3-17 11:7:27.251	WT901BLE68(490AABDC0D29)	-0.469	-0.779	-0.324	12.268	-16.052	46.814	-107.33	11.11	-58.11	-32.438	45.374	54.292	0.52151	-0.75156	0.32632	-0.23782	22.5	13111	100
2025-3-17 11:7:27.258	WT901BLE68(E947F43FF2E9)	0.504	-1.436	-0.014	-3.723	130.310	-26.428	-110.70	-23.91	88.36	21.168	29.694	14.210	-0.53366	0.49759	0.63638	-0.25003	24.3	13111	100
2025-3-17 11:7:27.340	WT901BLE68(490AABDC0D29)	-0.294	-0.832	-0.276	6.592	-0.549	2.136	-105.77	14.60	-57.65	-32.438	45.374	54.292	0.52151	-0.75156	0.32632	-0.23782	22.5	13111	100
2025-3-17 11:7:27.379	WT901BLE68(E947F43FF2E9)	-0.077	-0.778	-0.339	-126.526	249.084	-53.284	-109.97	-32.84	75.48	21.168	29.694	14.210	-0.53366	0.49759	0.63638	-0.25003	24.3	13111	100
2025-3-17 11:7:27.461	WT901BLE68(490AABDC0D29)	-0.172	-0.943	-0.214	9.644	7.202	-44.922	-104.82	12.61	-57.18	-32.438	45.374	54.292	0.57376	-0.65994	0.43469	-0.21494	22.5	13111	100
2025-3-17 11:7:27.468	WT901BLE68(E947F43FF2E9)	-0.273	-0.843	0.074	-57.678	46.387	-79.712	-102.50	-45.30	51.55	-4.312	26.068	23.422	-0.53366	0.49759	0.63638	-0.25003	24.3	13111	100
2025-3-17 11:7:27.521	WT901BLE68(490AABDC0D29)	0.014	-0.910	-0.165	-6.958	-10.193	-59.814	-104.44	7.86	-55.38	-32.438	45.374	54.292	0.57376	-0.65994	0.43469	-0.21494	22.5	13111	100
2025-3-17 11:7:27.589	WT901BLE68(E947F43FF2E9)	0.702	0.054	0.223	-40.466	-78.796	66.406	-111.28	-44.25	54.38	-4.312	26.068	23.422	-0.53366	0.49759	0.63638	-0.25003	24.3	13111	100
2025-3-17 11:7:27.640	WT901BLE68(490AABDC0D29)	0.094	-0.950	-0.205	-4.822	-10.742	-17.639	-104.79	4.69	-52.99	-38.318	44.296	51.548	0.57376	-0.65994	0.43469	-0.21494	22.5	13111	100
2025-3-17 11:7:27.676	WT901BLE68(E947F43FF2E9)	3.133	-0.022	-0.013	20.691	-28.870	180.969	-109.34	-28.44	50.99	-4.312	26.068	23.422	-0.59271	0.66855	0.43832	-0.09744	24.3	13111	100
2025-3-17 11:7:27.741	WT901BLE68(490AABDC0D29)	-0.209	-1.082	-0.301	13.000	-24.963	16.479	-104.35	5.42	-50.77	-38.318	44.296	51.548	0.57376	-0.65994	0.43469	-0.21494	22.5	13111	100
2025-3-17 11:7:27.797	WT901BLE68(E947F43FF2E9)	0.711	-0.460	-0.512	9.827	17.151	-13.000	-105.70	-19.43	49.86	-4.312	26.068	23.422	-0.59271	0.66855	0.43832	-0.09744	24.3	13111	100
2025-3-17 11:7:27.849	WT901BLE68(490AABDC0D29)	0.123	-1.316	-0.157	23.804	-3.296	31.555	-102.40	8.06	-50.37	-38.318	44.296	51.548	0.59399	-0.68137	0.37091	-0.21268	22.5	13111	100
2025-3-17 11:7:27.888	WT901BLE68(E947F43FF2E9)	0.278	-1.306	-0.192	33.081	-4.456	-18.127	-103.52	-24.77	49.19	15.190	27.342	27.440	-0.59271	0.66855	0.43832	-0.09744	24.3	13111	100
2025-3-17 11:7:27.939	WT901BLE68(490AABDC0D29)	-1.255	-1.306	-0.289	24.048	5.554	100.281	-99.40	12.33	-46.30	-38.318	44.296	51.548	0.59399	-0.68137	0.37091	-0.21268	22.5	13111	100
2025-3-17 11:7:28.7	WT901BLE68(E947F43FF2E9)	0.352	-1.118	-0.279	14.038	-44.739	28.809	-101.82	-23.49	51.90	15.190	27.342	27.440	-0.59271	0.66855	0.43832	-0.09744	24.3	13111	100
2025-3-17 11:7:28.60	WT901BLE68(490AABDC0D29)	0.510	-2.116	-0.490	5.981	26.794	249.573	-99.79	25.76	-53.32	-22.834	47.922	48.608	0.59399	-0.68137	0.37091	-0.21268	22.5	13111	100
2025-3-17 11:7:28.68	WT901BLE68(E947F43FF2E9)	0.119	-1.044	-0.167	5.920	-16.052	51.819	-101.38	-19.15	55.09	15.190	27.342	27.440	-0.61111	0.63168	0.44025	-0.18332	24.3	13111	100
2025-3-17 11:7:28.124	WT901BLE68(490AABDC0D29)	0.682	-0.245	-0.071	-29.541	-11.658	130.493	-105.28	45.18	-59.76	-22.834	47.922	48.608	0.59399	-0.68137	0.37091	-0.21268	22.5	13111	100
2025-3-17 11:7:28.189	WT901BLE68(E947F43FF2E9)	-0.024	-0.989	-0.179	-9.033	33.142	52.551	-100.88	-14.01	53.32	15.190	27.342	27.440	-0.61111	0.63168	0.44025	-0.18332	24.3	13111	100
2025-3-17 11:7:28.271	WT901BLE68(490AABDC0D29)	-1.579	0.352	0.082	-29.785	114.197	-116.211	-111.76	42.21	-62.91	-22.834	47.922	48.608	0.59683	-0.56253	0.57129	-0.02942	22.5	13111	100
2025-3-17 11:7:28.278	WT901BLE68(E947F43FF2E9)	0.203	-0.892	-0.204	1.038	31.555	9.460	-100.51	-11.59	49.04	26.068	25.382	24.696	-0.61111	0.63168	0.44025	-0.18332	24.3	13111	100
2025-3-17 11:7:28.329	WT901BLE68(490AABDC0D29)	0.910	-0.403	-0.226	-8.179	10.193	-174.866	-110.82	20.78	-58.54	-22.834	47.922	48.608	0.59683	-0.56253	0.57129	-0.02942	22.5	13111	100
2025-3-17 11:7:28.398	WT901BLE68(E947F43FF2E9)	-0.162	-1.135	-0.213	5.798	8.667	-27.466	-99.82	-12.80	48.12	26.068	25.382	24.696	-0.61111	0.63168	0.44025	-0.18332	24.3	13111	100
2025-3-17 11:7:28.450	WT901BLE68(490AABDC0D29)	-0.582	-1.067	0.353	11.597	-7.019	-18.677	-108.73	19.33	-50.43	-23.128	44.198	61.250	0.59683	-0.56253	0.57129	-0.02942	22.5	13111	100
2025-3-17 11:7:28.487	WT901BLE68(E947F43FF2E9)	1.213	-1.556	-0.041	6.287	16.235	-39.673	-99.07	-15.64	47.92	26.068	25.382	24.696	-0.63513	0.64648	0.39261	-0.15628	24.3	13111	100
2025-3-17 11:7:28.538	WT901BLE68(490AABDC0D29)	-0.409	-0.561	-0.410	3.174	-17.334	-34.546	-108.54	18.73	-52.20	-23.128	44.198	61.250	0.59683	-0.56253	0.57129	-0.02942	22.5	13111	100
2025-3-17 11:7:28.609	WT901BLE68(E947F43FF2E9)	0.256	-1.883	-0.270	25.208	-24.231	-189.392	-98.40	-23.76	48.49	26.068	25.382	24.696	-0.63513	0.64648	0.39261	-0.15628	24.3	13111	100
2025-3-17 11:7:28.661	WT901BLE68(490AABDC0D29)	-0.073	-0.844	-0.366	3.418	-16.785	-53.101	-107.20	16.40	-48.64	-23.128	44.198	61.250	0.58328	-0.69589	0.39438	-0.14099	22.5	13111	100
2025-3-17 11:7:28.668	WT901BLE68(E947F43FF2E9)	-0.641	-1.254	-0.363	-12.451	67.200	-169.617	-96.85	-43.60	48.15	-2.450	30.282	19.208	-0.63513	0.64648	0.39261	-0.15628	24.3	13111	100
2025-3-17 11:7:28.750	WT901BLE68(490AABDC0D29)	-0.038	-0.974	-0.347	21.179	-10.864	-61.646	-105.51	11.15	-45.19	-23.128	44.198	61.250	0.58328	-0.69589	0.39438	-0.14099	22.5	13111	100
2025-3-17 11:7:28.789	WT901BLE68(E947F43FF2E9)	0.085	0.194	0.026	-42.725	-10.437	13.672	-98.12	-48.98	44.71	-2.450	30.282	19.208	-0.63513	0.64648	0.39261	-0.15628	24.3	13111	100
2025-3-17 11:7:28.871	WT901BLE68(490AABDC0D29)	0.067	-0.921	-0.262	9.094	-1.648	-29.358	-104.01	7.05	-43.49	-34.986	42.826	58.310	0.58328	-0.69589	0.39438	-0.14099	22.5	13111	100
2025-3-17 11:7:28.878	WT901BLE68(E947F43FF2E9)	14.841	0.007	0.205	-3.784	-140.137	185.547	-102.91	-32.42	46.37	-2.450	30.282	19.208	-0.62088	0.64124	0.44162	-0.09030	24.3	13111	100
2025-3-17 11:7:28.931	WT901BLE68(490AABDC0D29)	-0.162	-0.992	-0.335	25.146	6.165	22.888	-102.38	7.40	-43.21	-34.986	42.826	58.310	0.58328	-0.69589	0.39438	-0.14099	22.5	13111	100
2025-3-17 11:7:28.999	WT901BLE68(E947F43FF2E9)	0.499	-0.868	-3.005	23.621	0.977	23.071	-102.61	-19.32	53.57	-2.450	30.282	19.208	-0.62088	0.64124	0.44162	-0.09030	24.3	13111	100
2025-3-17 11:7:29.49	WT901BLE68(490AABDC0D29)	-0.362	-1.382	-0.119	20.203	-34.912	-10.559	-100.17	8.62	-42.97	-34.986	42.826	58.310	0.61929	-0.69498	0.31860	-0.17844	22.5	13111	100
2025-3-17 11:7:29.89	WT901BLE68(E947F43FF2E9)	0.428	-1.807	-0.570	5.737	-9.460	5.676	-100.24	-24.00	53.42	15.386	33.418	10.290	-0.62088	0.64124	0.44162	-0.09030	24.3	13111	100
2025-3-17 11:7:29.141	WT901BLE68(490AABDC0D29)	-0.859	-1.142	-0.187	6.958	-0.244	57.190	-99.02	8.73	-38.19	-34.986	42.826	58.310	0.61929	-0.69498	0.31860	-0.17844	22.5	13111	100
2025-3-17 11:7:29.209	WT901BLE68(E947F43FF2E9)	0.357	-0.844	-0.390	9.888	-17.273	47.913	-98.83	-22.47	55.76	15.386	33.418	10.290	-0.62088	0.64124	0.44162	-0.09030	24.3	13111	100
2025-3-17 11:7:29.261	WT901BLE68(490AABDC0D29)	-0.117	-2.016	-0.519	0.793	-21.057	245.422	-98.92	26.10	-43.29	-19.992	45.668	56.056	0.61929	-0.69498	0.31860	-0.17844	22.5	13111	100
2025-3-17 11:7:29.297	WT901BLE68(E947F43FF2E9)	0.098	-0.888	-0.273	5.676	-21.179	64.636	-98.71	-17.01	58.90	15.386	33.418	10.290	-0.60971	0.61313	0.44330	-0.23596	24.3	13111	100
2025-3-17 11:7:29.350	WT901BLE68(490AABDC0D29)	0.501	-0.984	-0.319	0.549	-43.457	110.107	-99.49	43.72	-43.36	-19.992	45.668	56.056	0.61929	-0.69498	0.31860	-0.17844	22.5	13111	100
2025-3-17 11:7:29.427	WT901BLE68(E947F43FF2E9)	-0.024	-0.951	-0.281	-5.005	14.221	52.612	-98.57	-12.04	58.69	15.386	33.418	10.290	-0.60971	0.61313	0.44330	-0.23596	24.3	13111	100
2025-3-17 11:7:29.471	WT901BLE68(490AABDC0D29)	-1.320	0.102	0.021	-57.373	75.562	-65.796	-106.63	41.66	-45.58	-19.992	45.668	56.056	0.61050	-0.63785	0.46906	0.01794	22.5	13111	100
2025-3-17 11:7:29.479	WT901BLE68(E947F43FF2E9)	0.242	-0.973	-0.235	1.343	16.235	-5.676	-98.66	-10.06	57.50	30.478	29.400	10.192	-0.60971	0.61313	0.44330	-0.23596	24.3	13111	100
2025-3-17 11:7:29.531	WT901BLE68(490AABDC0D29)	-1.502	-0.367	-0.100	-13.550	35.706	-168.640	-110.20	21.82	-44.63	-19.992	45.668	56.056	0.61050	-0.63785	0.46906	0.01794	22.5	13111	100
2025-3-17 11:7:29.599	WT901BLE68(E947F43FF2E9)	0.119	-0.984	-0.205	11.719	-10.559	-21.423	-98.12	-11.34	59.74	30.478	29.400	10.192	-0.60971	0.61313	0.44330	-0.23596	24.3	13111	100
2025-3-17 11:7:29.682	WT901BLE68(490AABDC0D29)	-0.423	-1.120	-0.138	-9.460	18.311	28.809	-109.06	17.03	-41.13	-20.188	38.612	63.504	0.61050	-0.63785	0.46906	0.01794	22.5	13111	100
2025-3-17 11:7:29.689	WT901BLE68(E947F43FF2E9)	0.056	-1.307	-0.236	11.475	11.414	-27.222	-97.52	-13.40	61.11	30.478	29.400	10.192	-0.61163	0.59909	0.44925	-0.25507	24.3	13111	100
2025-3-17 11:7:29.741	WT901BLE68(490AABDC0D29)	-0.424	-0.803	-0.511	19.104	1.404	-11.230	-108.25	19.64	-40.99	-20.188	38.612	63.504	0.61050	-0.63785	0.46906	0.01794	22.5	13111	100
2025-3-17 11:7:29.809	WT901BLE68(E947F43FF2E9)	0.822	-1.237	-0.458	8.728	27.588	-70.557	-96.11	-16.20	59.11	30.478	29.400	10.192	-0.61163	0.59909	0.44925	-0.25507	24.3	13111	100
2025-3-17 11:7:29.861	WT901BLE68(490AABDC0D29)	-0.304	-0.940	-0.320	13.123	6.104	-43.640	-107.00	17.57	-40.87	-20.188	38.612	63.504	0.59409	-0.71335	0.35944	-0.09424	22.5	13111	100
2025-3-17 11:7:29.899	WT901BLE68(E947F43FF2E9)	-0.376	-1.772	-0.425	-12.634	70.557	-211.426	-96.76	-30.03	62.84	6.566	29.302	2.842	-0.61163	0.59909	0.44925	-0.25507	24.3	13111	100
2025-3-17 11:7:29.952	WT901BLE68(490AABDC0D29)	-0.027	-0.920	-0.262	19.592	20.325	-56.519	-105.07	12.72	-40.81	-20.188	38.612	63.504	0.59409	-0.71335	0.35944	-0.09424	22.5	13111	100
2025-3-17 11:7:30.19	WT901BLE68(E947F43FF2E9)	-0.426	-0.504	-0.054	-17.395	12.146	-84.412	-93.65	-46.48	56.90	6.566	29.302	2.842	-0.61163	0.59909	0.44925	-0.25507	24.3	13111	100
2025-3-17 11:7:30.71	WT901BLE68(490AABDC0D29)	0.051	-0.991	-0.229	-4.700	-0.122	-44.128	-104.33	7.87	-40.23	-30.576	39.004	60.172	0.59409	-0.71335	0.35944	-0.09424	22.5	13111	100
2025-3-17 11:7:30.78	WT901BLE68(E947F43FF2E9)	1.120	0.037	-0.039	-36.072	-99.426	96.802	-100.04	-45.80	59.60	6.566	29.302	2.842	-0.63925	0.53848	0.54303	-0.08014	24.3	13111	100
2025-3-17 11:7:30.161	WT901BLE68(490AABDC0D29)	0.106	-0.908	-0.331	-8.240	-42.969	-11.047	-104.95	5.75	-36.79	-30.576	39.004	60.172	0.59409	-0.71335	0.35944	-0.09424	22.5	13111	100
2025-3-17 11:7:30.198	WT901BLE68(E947F43FF2E9)	2.299	-0.264	-0.032	-9.949	-45.410	175.476	-103.23	-26.79	58.93	6.566	29.302	2.842	-0.63925	0.53848	0.54303	-0.08014	24.3	13111	100
2025-3-17 11:7:30.281	WT901BLE68(490AABDC0D29)	-0.094	-1.063	-0.272	12.695	-13.977	18.372	-104.07	6.12	-34.95	-30.576	39.004	60.172	0.60382	-0.73663	0.27057	-0.13943	22.5	13111	100
2025-3-17 11:7:30.289	WT901BLE68(E947F43FF2E9)	0.259	0.012	-0.500	18.066	-75.867	-37.598	-102.87	-21.00	62.78	7.056	20.874	19.698	-0.63925	0.53848	0.54303	-0.08014	24.3	13111	100
2025-3-17 11:7:30.339	WT901BLE68(490AABDC0D29)	0.634	-1.254	-0.188	19.226	-22.888	21.545	-102.10	8.53	-34.04	-30.576	39.004	60.172	0.60382	-0.73663	0.27057	-0.13943	22.5	13111	100
2025-3-17 11:7:30.409	WT901BLE68(E947F43FF2E9)	0.353	-1.131	0.218	14.404	36.743	20.325	-101.48	-24.51	60.78	7.056	20.874	19.698	-0.63925	0.53848	0.54303	-0.08014	24.3	13111	100
2025-3-17 11:7:30.460	WT901BLE68(490AABDC0D29)	-1.574	-1.502	-0.312	19.348	-25.024	90.332	-99.48	13.23	-30.49	-23.128	40.964	57.526	0.60382	-0.73663	0.27057	-0.13943	22.5	13111	100
2025-3-17 11:7:30.497	WT901BLE68(E947F43FF2E9)	0.330	-1.170	-0.271	13.916	-27.771	34.729	-100.50	-21.86	62.97	7.056	20.874	19.698	-0.60782	0.58163	0.49567	-0.21555	24.3	13111	100
2025-3-17 11:7:30.550	WT901BLE68(490AABDC0D29)	0.411	-1.869	-0.355	2.014	0.183	243.347	-100.04	27.68	-37.81	-23.128	40.964	57.526	0.60382	-0.73663	0.27057	-0.13943	22.5	13111	100
2025-3-17 11:7:30.619	WT901BLE68(E947F43FF2E9)	0.133	-1.001	-0.157	6.592	-11.108	59.082	-99.66	-17.57	64.04	7.056	20.874	19.698	-0.60782	0.58163	0.49567	-0.21555	24.3	13111	100
2025-3-17 11:7:30.671	WT901BLE68(490AABDC0D29)	0.531	-0.351	-0.186	-24.719	-24.170	81.421	-102.47	44.73	-38.07	-23.128	40.964	57.526	0.63046	-0.61261	0.46558	0.10156	22.5	13111	100
2025-3-17 11:7:30.707	WT901BLE68(E947F43FF2E9)	-0.055	-0.879	-0.251	-5.310	29.419	60.913	-99.39	-11.85	61.63	17.150	20.874	15.778	-0.60782	0.58163	0.49567	-0.21555	24.3	13111	100
2025-3-17 11:7:30.761	WT901BLE68(490AABDC0D29)	-1.174	0.178	0.077	-37.964	69.458	-93.201	-108.10	40.03	-39.78	-23.128	40.964	57.526	0.63046	-0.61261	0.46558	0.10156	22.5	13111	100
2025-3-17 11:7:30.833	WT901BLE68(E947F43FF2E9)	0.116	-1.006	-0.227	-8.118	36.743	7.629	-99.62	-8.99	57.26	17.150	20.874	15.778	-0.60782	0.58163	0.49567	-0.21555	24.3	13111	100
2025-3-17 11:7:30.880	WT901BLE68(490AABDC0D29)	-2.071	-0.278	-0.309	-11.353	73.242	-169.861	-110.39	19.19	-39.81	-16.562	39.592	60.074	0.63046	-0.61261	0.46558	0.10156	22.5	13111	100
2025-3-17 11:7:30.887	WT901BLE68(E947F43FF2E9)	0.086	-1.039	-0.237	6.592	9.155	-30.640	-99.38	-10.69	55.74	17.150	20.874	15.778	-0.60913	0.63736	0.41052	-0.23257	24.3	13111	100
2025-3-17 11:7:30.939	WT901BLE68(490AABDC0D29)	-0.616	-0.760	-0.227	-26.367	-97.717	-0.488	-111.35	16.70	-37.78	-16.562	39.592	60.074	0.63046	-0.61261	0.46558	0.10156	22.5	13111	100
2025-3-17 11:7:31.8	WT901BLE68(E947F43FF2E9)	-0.313	-1.291	-0.246	12.329	10.498	-8.667	-98.33	-12.12	55.21	17.150	20.874	15.778	-0.60913	0.63736	0.41052	-0.23257	24.3	13111	100
2025-3-17 11:7:31.59	WT901BLE68(490AABDC0D29)	-0.477	-0.974	-0.276	30.518	33.325	1.465	-108.59	18.69	-36.10	-16.562	39.592	60.074	0.59290	-0.72672	0.34055	-0.06519	22.5	13111	100
2025-3-17 11:7:31.98	WT901BLE68(E947F43FF2E9)	1.388	-1.395	-0.331	10.132	46.631	-55.420	-96.75	-13.76	51.67	11.858	22.246	17.052	-0.60913	0.63736	0.41052	-0.23257	24.3	13111	100
2025-3-17 11:7:31.148	WT901BLE68(490AABDC0D29)	-0.206	-0.898	-0.231	15.320	9.460	-41.992	-106.61	16.30	-37.49	-16.562	39.592	60.074	0.59290	-0.72672	0.34055	-0.06519	22.5	13111	100
2025-3-17 11:7:31.217	WT901BLE68(E947F43FF2E9)	0.087	-1.723	-0.515	-1.831	33.813	-219.360	-96.88	-25.69	56.02	11.858	22.246	17.052	-0.60913	0.63736	0.41052	-0.23257	24.3	13111	100
2025-3-17 11:7:31.269	WT901BLE68(490AABDC0D29)	-0.066	-0.942	-0.313	9.094	-1.892	-57.678	-105.41	11.72	-37.47	-27.440	40.376	56.546	0.59290	-0.72672	0.34055	-0.06519	22.5	13111	100
2025-3-17 11:7:31.307	WT901BLE68(E947F43FF2E9)	-0.331	-1.034	-0.291	-16.846	82.825	-126.587	-92.77	-42.01	44.43	11.858	22.246	17.052	-0.69168	0.52832	0.49182	0.02106	24.3	13111	100
2025-3-17 11:7:31.360	WT901BLE68(490AABDC0D29)	-0.018	-0.911	-0.270	-4.944	-12.329	-51.880	-104.90	6.94	-36.10	-27.440	40.376	56.546	0.59290	-0.72672	0.34055	-0.06519	22.5	13111	100
2025-3-17 11:7:31.432	WT901BLE68(E947F43FF2E9)	0.348	-0.100	0.036	-34.241	-87.402	31.250	-99.15	-43.26	47.05	11.858	22.246	17.052	-0.69168	0.52832	0.49182	0.02106	24.3	13111	100
2025-3-17 11:7:31.480	WT901BLE68(490AABDC0D29)	-0.017	-0.955	-0.268	-4.089	-25.757	-16.357	-105.21	3.95	-34.19	-27.440	40.376	56.546	0.58807	-0.75452	0.24921	-0.15051	22.5	13111	100
2025-3-17 11:7:31.488	WT901BLE68(E947F43FF2E9)	1.615	-0.188	-0.091	5.188	-86.914	172.913	-102.27	-26.24	49.13	5.978	22.148	22.736	-0.69168	0.52832	0.49182	0.02106	24.3	13111	100
2025-3-17 11:7:31.572	WT901BLE68(490AABDC0D29)	0.008	-0.987	-0.268	9.888	-9.521	2.563	-105.16	3.72	-32.40	-27.440	40.376	56.546	0.58807	-0.75452	0.24921	-0.15051	22.5	13111	100
2025-3-17 11:7:31.607	WT901BLE68(E947F43FF2E9)	0.149	-0.426	-0.374	24.658	-49.805	33.203	-102.52	-15.92	54.73	5.978	22.148	22.736	-0.69168	0.52832	0.49182	0.02106	24.3	13111	100
2025-3-17 11:7:31.697	WT901BLE68(E947F43FF2E9)	0.449	-1.361	-0.485	-0.977	64.270	-17.090	-101.27	-21.32	53.06	5.978	22.148	22.736	-0.63339	0.61740	0.44119	-0.15118	24.3	13111	100
2025-3-17 11:7:31.720	WT901BLE68(490AABDC0D29)	0.075	-1.088	-0.361	26.245	-19.226	20.081	-104.01	5.23	-31.59	-31.262	39.494	55.958	0.58807	-0.75452	0.24921	-0.15051	22.5	13111	100
2025-3-17 11:7:31.749	WT901BLE68(490AABDC0D29)	-0.698	-1.505	-0.188	21.118	-89.050	0.549	-101.31	6.76	-28.81	-31.262	39.494	55.958	0.58807	-0.75452	0.24921	-0.15051	22.5	13111	100
2025-3-17 11:7:31.816	WT901BLE68(E947F43FF2E9)	0.425	-0.740	-0.534	21.912	-19.287	36.926	-98.71	-20.71	53.27	5.978	22.148	22.736	-0.63339	0.61740	0.44119	-0.15118	24.3	13111	100
2025-3-17 11:7:31.870	WT901BLE68(490AABDC0D29)	-0.333	-1.383	-0.566	16.113	67.749	128.662	-99.74	13.04	-25.74	-31.262	39.494	55.958	0.64182	-0.70621	0.29666	-0.03497	22.5	13111	100
2025-3-17 11:7:31.908	WT901BLE68(E947F43FF2E9)	0.114	-0.960	-0.195	19.775	-38.513	54.382	-98.39	-16.68	56.53	17.248	23.422	17.640	-0.63339	0.61740	0.44119	-0.15118	24.3	13111	100
2025-3-17 11:7:31.959	WT901BLE68(490AABDC0D29)	0.661	-1.791	-0.573	-25.635	-63.049	218.872	-101.80	32.45	-29.02	-31.262	39.494	55.958	0.64182	-0.70621	0.29666	-0.03497	22.5	13111	100
2025-3-17 11:7:32.37	WT901BLE68(E947F43FF2E9)	0.008	-0.958	-0.193	3.235	-5.859	54.443	-97.93	-11.22	58.51	17.248	23.422	17.640	-0.63339	0.61740	0.44119	-0.15118	24.3	13111	100
2025-3-17 11:7:32.81	WT901BLE68(490AABDC0D29)	0.236	0.202	-0.056	-53.528	59.753	35.339	-106.40	42.19	-31.82	-2.548	38.024	59.682	0.64182	-0.70621	0.29666	-0.03497	22.5	13111	100
2025-3-17 11:7:32.117	WT901BLE68(E947F43FF2E9)	-0.011	-0.910	-0.180	1.831	40.710	38.635	-97.63	-6.62	56.80	17.248	23.422	17.640	-0.60062	0.65091	0.37650	-0.27151	24.3	13111	100
2025-3-17 11:7:32.171	WT901BLE68(490AABDC0D29)	-1.981	0.042	0.151	-16.846	63.599	-188.721	-110.47	28.54	-31.99	-2.548	38.024	59.682	0.64182	-0.70621	0.29666	-0.03497	22.5	13111	100
2025-3-17 11:7:32.240	WT901BLE68(E947F43FF2E9)	0.108	-0.998	-0.214	7.202	6.653	-25.452	-97.58	-6.23	54.49	17.248	23.422	17.640	-0.60062	0.65091	0.37650	-0.27151	24.3	13111	100
2025-3-17 11:7:32.291	WT901BLE68(490AABDC0D29)	0.729	-0.735	-0.418	7.935	11.963	-110.291	-107.63	9.03	-27.20	-2.548	38.024	59.682	0.58820	-0.77161	0.22873	-0.07883	22.5	13111	100
