time	DeviceName	AccX(g)	AccY(g)	AccZ(g)	AsX(°/s)	AsY(°/s)	AsZ(°/s)	AngleX(°)	AngleY(°)	AngleZ(°)	HX(uT)	HY(uT)	HZ(uT)	Q0()	Q1()	Q2()	Q3()	Temperature(°C)	Version()	Battery level(%)
2025-3-13 11:57:53.124	WT901BLE68(490AABDC0D29)	-0.003	-0.920	-0.366	-0.122	0.305	0.000	-114.27	0.74	-32.91	-28.420	28.224	56.546	0.52206	-0.80432	0.24139	-0.14871	27.6	13111	100
2025-3-13 11:57:53.134	WT901BLE68(E947F43FF2E9)	0.007	0.991	-0.098	-1.038	0.061	0.488	94.37	-0.88	-23.04	-3.234	-60.368	-0.392	0.66681	0.71817	-0.15060	-0.12955	27.2	13111	100
2025-3-13 11:57:53.184	WT901BLE68(E947F43FF2E9)	0.007	0.991	-0.098	-1.099	0.183	0.671	94.34	-0.91	-23.10	-3.234	-60.368	-0.392	0.66718	0.71729	-0.15237	-0.13046	27.2	13111	100
2025-3-13 11:57:53.250	WT901BLE68(490AABDC0D29)	-0.004	-0.923	-0.367	-0.366	0.366	-0.427	-114.14	0.68	-33.02	-28.518	28.126	56.546	0.52206	-0.80432	0.24139	-0.14871	27.6	13111	100
2025-3-13 11:57:53.308	WT901BLE68(E947F43FF2E9)	0.008	0.992	-0.098	-0.793	-0.305	0.183	94.33	-0.92	-23.16	-3.234	-60.368	-0.392	0.66718	0.71729	-0.15237	-0.13046	27.2	13111	100
2025-3-13 11:57:53.325	WT901BLE68(490AABDC0D29)	-0.002	-0.921	-0.366	-0.183	0.244	0.000	-114.02	0.62	-33.12	-28.518	28.126	56.546	0.52206	-0.80432	0.24139	-0.14871	27.6	13111	100
2025-3-13 11:57:53.382	WT901BLE68(E947F43FF2E9)	0.008	0.991	-0.097	-0.916	0.488	0.427	94.32	-0.94	-23.23	-3.234	-60.270	-0.490	0.66718	0.71729	-0.15237	-0.13046	27.2	13111	100
2025-3-13 11:57:53.450	WT901BLE68(490AABDC0D29)	-0.001	-0.918	-0.368	-0.244	0.549	-0.183	-113.91	0.55	-33.22	-28.518	28.126	56.546	0.52206	-0.80432	0.24139	-0.14871	27.6	13111	100
2025-3-13 11:57:53.508	WT901BLE68(E947F43FF2E9)	0.008	0.991	-0.099	-1.038	0.061	0.366	94.31	-0.95	-23.25	-3.234	-60.270	-0.490	0.66718	0.71729	-0.15237	-0.13046	27.2	13111	100
2025-3-13 11:57:53.526	WT901BLE68(490AABDC0D29)	-0.002	-0.920	-0.368	-0.305	0.305	0.000	-113.81	0.51	-33.32	-28.518	28.126	56.546	0.52414	-0.80179	0.24255	-0.15308	27.6	13111	100
2025-3-13 11:57:53.584	WT901BLE68(E947F43FF2E9)	0.009	0.990	-0.097	-0.854	0.000	0.427	94.29	-0.96	-23.29	-3.234	-60.270	-0.490	0.66736	0.71667	-0.15378	-0.13132	27.2	13111	100
2025-3-13 11:57:53.652	WT901BLE68(490AABDC0D29)	-0.001	-0.915	-0.367	-0.366	0.244	0.000	-113.72	0.47	-33.41	-28.518	28.126	56.546	0.52414	-0.80179	0.24255	-0.15308	27.6	13111	100
2025-3-13 11:57:53.709	WT901BLE68(E947F43FF2E9)	0.008	0.991	-0.098	-0.793	0.244	0.366	94.28	-0.98	-23.32	-3.234	-60.270	-0.490	0.66736	0.71667	-0.15378	-0.13132	27.2	13111	100
2025-3-13 11:57:53.726	WT901BLE68(490AABDC0D29)	0.000	-0.920	-0.368	-0.061	0.122	0.000	-113.63	0.44	-33.49	-28.616	28.126	56.644	0.52414	-0.80179	0.24255	-0.15308	27.6	13111	100
2025-3-13 11:57:53.809	WT901BLE68(E947F43FF2E9)	0.008	0.990	-0.097	-0.793	0.183	0.305	94.27	-0.98	-23.34	-3.234	-60.270	-0.490	0.66736	0.71667	-0.15378	-0.13132	27.2	13111	100
2025-3-13 11:57:53.850	WT901BLE68(490AABDC0D29)	-0.001	-0.918	-0.368	0.000	0.305	0.000	-113.53	0.41	-33.57	-28.616	28.126	56.644	0.52414	-0.80179	0.24255	-0.15308	27.6	13111	100
2025-3-13 11:57:53.907	WT901BLE68(E947F43FF2E9)	0.008	0.992	-0.099	-0.977	0.244	0.366	94.26	-0.98	-23.38	-3.234	-60.270	-0.490	0.66736	0.71667	-0.15378	-0.13132	27.2	13111	100
2025-3-13 11:57:53.926	WT901BLE68(490AABDC0D29)	-0.000	-0.917	-0.369	-0.122	0.183	0.000	-113.44	0.38	-33.63	-28.616	28.126	56.644	0.52606	-0.79962	0.24365	-0.15619	27.6	13111	100
2025-3-13 11:57:54.9	WT901BLE68(E947F43FF2E9)	0.008	0.990	-0.098	-0.977	0.061	0.427	94.25	-0.99	-23.43	-3.234	-60.270	-0.490	0.66745	0.71625	-0.15479	-0.13208	27.2	13111	100
2025-3-13 11:57:54.52	WT901BLE68(490AABDC0D29)	-0.001	-0.918	-0.368	0.000	-0.061	0.000	-113.36	0.35	-33.70	-28.616	28.126	56.644	0.52606	-0.79962	0.24365	-0.15619	27.6	13111	100
2025-3-13 11:57:54.114	WT901BLE68(E947F43FF2E9)	0.007	0.991	-0.099	-0.977	0.122	0.366	94.24	-1.00	-23.47	-3.234	-60.270	-0.490	0.66745	0.71625	-0.15479	-0.13208	27.2	13111	100
2025-3-13 11:57:54.127	WT901BLE68(490AABDC0D29)	-0.000	-0.919	-0.368	0.000	0.122	0.000	-113.27	0.34	-33.74	-28.714	28.028	56.644	0.52606	-0.79962	0.24365	-0.15619	27.6	13111	100
2025-3-13 11:57:54.210	WT901BLE68(E947F43FF2E9)	0.008	0.991	-0.098	-1.038	0.183	0.366	94.23	-1.01	-23.50	-3.332	-60.368	-0.490	0.66745	0.71625	-0.15479	-0.13208	27.2	13111	100
2025-3-13 11:57:54.252	WT901BLE68(490AABDC0D29)	-0.002	-0.919	-0.369	0.000	0.061	0.000	-113.19	0.32	-33.79	-28.714	28.028	56.644	0.52606	-0.79962	0.24365	-0.15619	27.6	13111	100
2025-3-13 11:57:54.310	WT901BLE68(E947F43FF2E9)	0.008	0.991	-0.098	-0.977	0.122	0.305	94.22	-1.01	-23.53	-3.332	-60.368	-0.490	0.66745	0.71625	-0.15479	-0.13208	27.2	13111	100
2025-3-13 11:57:54.327	WT901BLE68(490AABDC0D29)	0.000	-0.921	-0.370	0.000	0.244	0.000	-113.12	0.30	-33.84	-28.714	28.028	56.644	0.52786	-0.79782	0.24423	-0.15833	27.6	13111	100
2025-3-13 11:57:54.412	WT901BLE68(E947F43FF2E9)	0.008	0.990	-0.099	-0.977	0.061	0.427	94.21	-1.02	-23.57	-3.332	-60.368	-0.490	0.66757	0.71579	-0.15567	-0.13272	27.2	13111	100
2025-3-13 11:57:54.451	WT901BLE68(490AABDC0D29)	0.000	-0.917	-0.369	-0.122	0.000	0.000	-113.04	0.27	-33.89	-28.714	28.028	56.644	0.52786	-0.79782	0.24423	-0.15833	27.6	13111	100
2025-3-13 11:57:54.525	WT901BLE68(490AABDC0D29)	-0.003	-0.918	-0.369	-0.122	0.122	0.000	-112.99	0.26	-33.94	-28.616	28.126	56.546	0.52786	-0.79782	0.24423	-0.15833	27.6	13111	100
2025-3-13 11:57:54.534	WT901BLE68(E947F43FF2E9)	0.007	0.991	-0.098	-1.038	0.122	0.488	94.20	-1.02	-23.60	-3.332	-60.368	-0.490	0.66757	0.71579	-0.15567	-0.13272	27.2	13111	100
2025-3-13 11:57:54.613	WT901BLE68(E947F43FF2E9)	0.007	0.991	-0.097	-1.038	-0.061	0.244	94.19	-1.03	-23.63	-3.332	-60.368	-0.392	0.66757	0.71579	-0.15567	-0.13272	27.2	13111	100
2025-3-13 11:57:54.651	WT901BLE68(490AABDC0D29)	0.000	-0.922	-0.370	-0.122	-0.122	0.000	-112.94	0.24	-33.97	-28.616	28.126	56.546	0.52786	-0.79782	0.24423	-0.15833	27.6	13111	100
2025-3-13 11:57:54.752	WT901BLE68(490AABDC0D29)	-0.002	-0.916	-0.368	-0.061	0.427	0.244	-112.88	0.24	-34.07	-28.616	28.126	56.546	0.52902	-0.79636	0.24524	-0.16031	27.6	13111	100
2025-3-13 11:57:54.759	WT901BLE68(E947F43FF2E9)	0.007	0.993	-0.096	-1.160	-0.061	0.427	94.17	-1.03	-23.66	-3.332	-60.368	-0.392	0.66757	0.71579	-0.15567	-0.13272	27.2	13111	100
2025-3-13 11:57:54.815	WT901BLE68(E947F43FF2E9)	0.009	0.992	-0.097	-1.160	0.000	0.427	94.16	-1.03	-23.68	-3.332	-60.368	-0.392	0.66785	0.71530	-0.15646	-0.13324	27.2	13111	100
2025-3-13 11:57:54.851	WT901BLE68(490AABDC0D29)	-0.001	-0.922	-0.367	0.122	0.488	0.183	-112.81	0.23	-34.12	-28.616	28.126	56.546	0.52902	-0.79636	0.24524	-0.16031	27.6	13111	100
2025-3-13 11:57:54.933	WT901BLE68(E947F43FF2E9)	0.010	0.991	-0.098	-1.160	-0.122	0.305	94.14	-1.05	-23.70	-3.332	-60.368	-0.392	0.66785	0.71530	-0.15646	-0.13324	27.2	13111	100
2025-3-13 11:57:54.953	WT901BLE68(490AABDC0D29)	-0.003	-0.919	-0.368	-0.305	0.122	0.061	-112.77	0.22	-34.17	-28.616	28.126	56.644	0.52902	-0.79636	0.24524	-0.16031	27.6	13111	100
2025-3-13 11:57:55.14	WT901BLE68(E947F43FF2E9)	0.009	0.990	-0.096	-0.977	0.122	0.488	94.13	-1.05	-23.72	-3.332	-60.270	-0.392	0.66785	0.71530	-0.15646	-0.13324	27.2	13111	100
2025-3-13 11:57:55.50	WT901BLE68(490AABDC0D29)	-0.001	-0.917	-0.371	-0.122	0.061	-0.122	-112.75	0.20	-34.21	-28.616	28.126	56.644	0.52902	-0.79636	0.24524	-0.16031	27.6	13111	100
2025-3-13 11:57:55.134	WT901BLE68(E947F43FF2E9)	0.008	0.990	-0.099	-0.916	-0.183	0.305	94.13	-1.05	-23.71	-3.332	-60.270	-0.392	0.66785	0.71530	-0.15646	-0.13324	27.2	13111	100
2025-3-13 11:57:55.151	WT901BLE68(490AABDC0D29)	0.000	-0.919	-0.369	0.000	-0.061	-0.122	-112.70	0.19	-34.23	-28.616	28.126	56.644	0.52997	-0.79523	0.24588	-0.16177	27.6	13111	100
2025-3-13 11:57:55.235	WT901BLE68(E947F43FF2E9)	0.007	0.990	-0.097	-0.916	-0.122	0.244	94.13	-1.05	-23.69	-3.332	-60.270	-0.392	0.66788	0.71518	-0.15659	-0.13345	27.2	13111	100
2025-3-13 11:57:55.277	WT901BLE68(490AABDC0D29)	-0.001	-0.919	-0.369	-0.183	0.000	0.000	-112.66	0.16	-34.26	-28.616	28.126	56.644	0.52997	-0.79523	0.24588	-0.16177	27.6	13111	100
2025-3-13 11:57:55.334	WT901BLE68(E947F43FF2E9)	0.009	0.992	-0.098	-1.099	0.122	0.366	94.13	-1.04	-23.73	-3.332	-60.270	-0.392	0.66788	0.71518	-0.15659	-0.13345	27.2	13111	100
2025-3-13 11:57:55.351	WT901BLE68(490AABDC0D29)	-0.003	-0.917	-0.370	-0.183	0.122	0.000	-112.63	0.15	-34.28	-28.518	28.028	56.546	0.52997	-0.79523	0.24588	-0.16177	27.6	13111	100
2025-3-13 11:57:55.416	WT901BLE68(E947F43FF2E9)	0.022	0.990	-0.098	-1.038	-0.122	0.366	94.11	-1.05	-23.79	-3.332	-60.270	-0.294	0.66788	0.71518	-0.15659	-0.13345	27.2	13111	100
2025-3-13 11:57:55.476	WT901BLE68(490AABDC0D29)	-0.009	-0.918	-0.372	0.244	-0.305	0.000	-112.59	0.15	-34.29	-28.518	28.028	56.546	0.52997	-0.79523	0.24588	-0.16177	27.6	13111	100
2025-3-13 11:57:55.535	WT901BLE68(E947F43FF2E9)	0.060	0.986	-0.094	-1.099	-0.488	0.061	94.13	-1.03	-23.83	-3.332	-60.270	-0.294	0.66788	0.71518	-0.15659	-0.13345	27.2	13111	100
2025-3-13 11:57:55.551	WT901BLE68(490AABDC0D29)	0.008	-0.914	-0.377	2.747	-1.404	-1.892	-112.41	0.12	-34.15	-28.518	28.028	56.546	0.53195	-0.79419	0.24454	-0.16245	27.6	13111	100
2025-3-13 11:57:55.635	WT901BLE68(E947F43FF2E9)	-0.064	1.082	-0.079	-15.320	-3.540	-2.075	93.57	-0.80	-24.85	-3.332	-60.270	-0.294	0.67459	0.70752	-0.15601	-0.14105	27.2	13111	100
2025-3-13 11:57:55.674	WT901BLE68(490AABDC0D29)	0.029	-0.914	-0.362	7.385	-0.549	-3.174	-111.87	-0.10	-33.97	-28.518	28.028	56.546	0.53195	-0.79419	0.24454	-0.16245	27.6	13111	100
2025-3-13 11:57:55.734	WT901BLE68(E947F43FF2E9)	-0.116	0.986	-0.093	-7.813	-4.089	-4.211	92.65	-0.48	-24.32	-3.332	-60.270	-0.294	0.67459	0.70752	-0.15601	-0.14105	27.2	13111	100
2025-3-13 11:57:55.751	WT901BLE68(490AABDC0D29)	0.063	-1.013	-0.344	8.179	2.808	1.465	-111.15	-0.24	-33.92	-28.812	28.322	56.056	0.53195	-0.79419	0.24454	-0.16245	27.6	13111	100
2025-3-13 11:57:55.818	WT901BLE68(E947F43FF2E9)	-0.236	1.026	-0.148	0.061	3.296	-21.362	92.20	0.81	-25.50	-0.980	-60.956	-1.078	0.67459	0.70752	-0.15601	-0.14105	27.2	13111	100
2025-3-13 11:57:55.876	WT901BLE68(490AABDC0D29)	-0.061	-0.931	-0.315	28.137	5.798	1.404	-109.40	0.22	-34.23	-28.812	28.322	56.056	0.53195	-0.79419	0.24454	-0.16245	27.6	13111	100
2025-3-13 11:57:55.932	WT901BLE68(E947F43FF2E9)	-0.281	1.004	-0.155	22.156	0.610	-50.293	93.67	4.70	-26.39	-0.980	-60.956	-1.078	0.67459	0.70752	-0.15601	-0.14105	27.2	13111	100
2025-3-13 11:57:55.951	WT901BLE68(490AABDC0D29)	-0.066	-0.970	-0.170	22.522	5.676	11.597	-107.03	0.44	-34.51	-28.812	28.322	56.056	0.56870	-0.76712	0.24069	-0.17331	27.6	13111	100
2025-3-13 11:57:56.35	WT901BLE68(E947F43FF2E9)	-0.225	1.032	-0.108	31.921	-13.672	-67.139	96.64	10.83	-27.72	-0.980	-60.956	-1.078	0.60092	0.74799	-0.10483	-0.26135	27.2	13111	100
2025-3-13 11:57:56.75	WT901BLE68(490AABDC0D29)	-0.096	-1.002	-0.143	29.541	31.921	33.936	-104.34	2.26	-36.53	-24.990	32.340	49.000	0.56870	-0.76712	0.24069	-0.17331	27.6	13111	100
2025-3-13 11:57:56.134	WT901BLE68(E947F43FF2E9)	-0.114	0.986	-0.221	37.109	-17.700	-61.218	99.54	17.59	-29.85	-0.980	-60.956	-1.078	0.60092	0.74799	-0.10483	-0.26135	27.2	13111	100
2025-3-13 11:57:56.152	WT901BLE68(490AABDC0D29)	-0.096	-0.990	-0.191	18.494	11.658	48.279	-102.13	5.81	-39.80	-24.990	32.340	49.000	0.56870	-0.76712	0.24069	-0.17331	27.6	13111	100
2025-3-13 11:57:56.219	WT901BLE68(E947F43FF2E9)	-0.078	0.941	-0.205	42.236	2.625	-23.987	103.84	21.28	-28.67	14.406	-64.092	8.918	0.60092	0.74799	-0.10483	-0.26135	27.2	13111	100
2025-3-13 11:57:56.276	WT901BLE68(490AABDC0D29)	-0.036	-0.940	-0.234	11.108	-13.184	28.015	-100.56	9.57	-40.79	-24.990	32.340	49.000	0.56870	-0.76712	0.24069	-0.17331	27.6	13111	100
2025-3-13 11:57:56.332	WT901BLE68(E947F43FF2E9)	-0.031	0.822	-0.100	18.616	6.958	34.485	107.41	19.30	-23.53	14.406	-64.092	8.918	0.60092	0.74799	-0.10483	-0.26135	27.2	13111	100
2025-3-13 11:57:56.352	WT901BLE68(490AABDC0D29)	-0.066	-0.882	-0.252	-6.409	-26.062	6.470	-100.01	11.44	-37.51	-24.990	32.340	49.000	0.62964	-0.70313	0.30341	-0.13040	27.6	13111	100
2025-3-13 11:57:56.432	WT901BLE68(E947F43FF2E9)	-0.187	0.970	-0.176	-15.869	54.504	70.007	107.62	12.15	-18.00	14.406	-64.092	8.918	0.60208	0.78864	-0.07141	-0.10168	27.2	13111	100
2025-3-13 11:57:56.476	WT901BLE68(490AABDC0D29)	-0.216	-0.984	-0.228	-10.620	0.916	-24.475	-101.18	10.04	-36.46	-24.990	32.340	49.000	0.62964	-0.70313	0.30341	-0.13040	27.6	13111	100
2025-3-13 11:57:56.532	WT901BLE68(E947F43FF2E9)	-0.251	1.005	-0.302	-37.903	36.560	74.158	104.39	3.48	-13.62	14.406	-64.092	8.918	0.60208	0.78864	-0.07141	-0.10168	27.2	13111	100
2025-3-13 11:57:56.550	WT901BLE68(490AABDC0D29)	-0.250	-0.918	-0.238	-14.221	-10.071	-36.865	-102.32	6.68	-34.38	-21.756	32.242	49.588	0.62964	-0.70313	0.30341	-0.13040	27.6	13111	100
2025-3-13 11:57:56.622	WT901BLE68(E947F43FF2E9)	0.070	0.955	-0.375	-34.302	59.387	45.288	100.94	-2.76	-11.64	-3.332	-59.878	0.882	0.60208	0.78864	-0.07141	-0.10168	27.2	13111	100
2025-3-13 11:57:56.677	WT901BLE68(490AABDC0D29)	-0.087	-0.983	-0.130	-10.742	-11.414	-27.161	-103.63	4.02	-32.97	-21.756	32.242	49.588	0.62964	-0.70313	0.30341	-0.13040	27.6	13111	100
2025-3-13 11:57:56.732	WT901BLE68(E947F43FF2E9)	0.196	0.928	-0.220	-25.452	-18.860	11.963	98.86	-4.65	-12.45	-3.332	-59.878	0.882	0.60208	0.78864	-0.07141	-0.10168	27.2	13111	100
2025-3-13 11:57:56.752	WT901BLE68(490AABDC0D29)	-0.022	-1.000	-0.157	5.432	-8.240	-11.414	-103.46	2.99	-31.78	-21.756	32.242	49.588	0.60226	-0.74979	0.22906	-0.15005	27.6	13111	100
2025-3-13 11:57:56.822	WT901BLE68(E947F43FF2E9)	0.003	1.009	-0.067	-31.311	-0.610	33.997	96.30	-6.12	-14.10	-3.332	-59.878	0.882	0.68225	0.71744	-0.13806	-0.02533	27.2	13111	100
2025-3-13 11:57:56.875	WT901BLE68(490AABDC0D29)	-0.038	-0.938	-0.208	4.578	5.127	-5.310	-102.71	2.62	-32.11	-21.756	32.242	49.588	0.60226	-0.74979	0.22906	-0.15005	27.6	13111	100
2025-3-13 11:57:56.932	WT901BLE68(E947F43FF2E9)	0.043	0.984	-0.136	-23.804	15.015	14.404	93.57	-9.01	-13.57	-3.332	-59.878	0.882	0.68225	0.71744	-0.13806	-0.02533	27.2	13111	100
2025-3-13 11:57:56.952	WT901BLE68(490AABDC0D29)	-0.060	-0.860	-0.179	7.507	12.390	-17.334	-102.07	1.35	-32.85	-26.460	30.086	49.980	0.60226	-0.74979	0.22906	-0.15005	27.6	13111	100
2025-3-13 11:57:57.9	WT901BLE68(E947F43FF2E9)	-0.229	0.884	-0.070	-16.907	25.024	-6.531	91.22	-8.82	-11.96	-7.546	-56.938	-6.370	0.68225	0.71744	-0.13806	-0.02533	27.2	13111	100
2025-3-13 11:57:57.77	WT901BLE68(490AABDC0D29)	0.012	-1.098	-0.566	-2.869	8.179	-15.076	-101.80	-0.26	-33.22	-26.460	30.086	49.980	0.60226	-0.74979	0.22906	-0.15005	27.6	13111	100
2025-3-13 11:57:57.134	WT901BLE68(E947F43FF2E9)	0.245	0.910	-0.007	10.681	-11.780	7.446	91.02	-9.03	-9.87	-7.546	-56.938	-6.370	0.68225	0.71744	-0.13806	-0.02533	27.2	13111	100
2025-3-13 11:57:57.151	WT901BLE68(490AABDC0D29)	0.016	-0.979	-0.181	0.000	9.460	-5.859	-101.93	-1.05	-34.19	-26.460	30.086	49.980	0.59949	-0.74399	0.22305	-0.19299	27.6	13111	100
2025-3-13 11:57:57.210	WT901BLE68(E947F43FF2E9)	0.296	0.978	-0.001	-3.784	2.869	4.822	91.48	-10.02	-7.74	-7.546	-56.938	-6.370	0.69849	0.70755	-0.10355	0.02548	27.2	13111	100
2025-3-13 11:57:57.277	WT901BLE68(490AABDC0D29)	0.033	-0.985	-0.173	-4.700	-2.747	-5.493	-102.04	-1.48	-34.55	-26.460	30.086	49.980	0.59949	-0.74399	0.22305	-0.19299	27.6	13111	100
2025-3-13 11:57:57.333	WT901BLE68(E947F43FF2E9)	-0.058	0.955	-0.068	-9.521	5.676	-0.427	91.22	-10.44	-6.16	-7.546	-56.938	-6.370	0.69849	0.70755	-0.10355	0.02548	27.2	13111	100
2025-3-13 11:57:57.352	WT901BLE68(490AABDC0D29)	0.042	-0.966	-0.238	-5.737	3.540	-5.981	-102.61	-2.13	-34.89	-29.400	29.008	48.804	0.59949	-0.74399	0.22305	-0.19299	27.6	13111	100
2025-3-13 11:57:57.425	WT901BLE68(E947F43FF2E9)	0.311	0.971	0.031	-1.282	28.809	6.104	89.37	-10.45	0.87	-7.742	-56.154	-8.722	0.69849	0.70755	-0.10355	0.02548	27.2	13111	100
2025-3-13 11:57:57.477	WT901BLE68(490AABDC0D29)	0.062	-0.964	-0.223	-2.625	-1.160	-6.958	-102.92	-2.63	-34.75	-29.400	29.008	48.804	0.59949	-0.74399	0.22305	-0.19299	27.6	13111	100
2025-3-13 11:57:57.534	WT901BLE68(E947F43FF2E9)	0.188	0.948	0.011	3.906	3.967	5.615	89.86	-11.20	0.83	-7.742	-56.154	-8.722	0.69849	0.70755	-0.10355	0.02548	27.2	13111	100
2025-3-13 11:57:57.552	WT901BLE68(490AABDC0D29)	0.082	-0.965	-0.217	0.061	-3.845	-10.132	-103.01	-3.38	-34.28	-29.400	29.008	48.804	0.58759	-0.75330	0.21179	-0.20578	27.6	13111	100
2025-3-13 11:57:57.633	WT901BLE68(E947F43FF2E9)	0.221	0.982	0.006	1.892	-4.333	8.179	90.08	-11.80	2.07	-7.742	-56.154	-8.722	0.69815	0.70734	-0.06165	0.09143	27.2	13111	100
2025-3-13 11:57:57.676	WT901BLE68(490AABDC0D29)	0.075	-0.959	-0.209	-3.662	4.272	-6.714	-103.15	-4.17	-34.00	-29.400	29.008	48.804	0.58759	-0.75330	0.21179	-0.20578	27.6	13111	100
2025-3-13 11:57:57.733	WT901BLE68(E947F43FF2E9)	0.245	0.972	-0.011	6.287	-8.606	7.629	90.64	-12.58	2.40	-7.742	-56.154	-8.722	0.69815	0.70734	-0.06165	0.09143	27.2	13111	100
2025-3-13 11:57:57.753	WT901BLE68(490AABDC0D29)	0.083	-0.960	-0.223	-2.563	2.808	-3.784	-103.43	-4.75	-34.38	-31.262	28.028	49.196	0.58759	-0.75330	0.21179	-0.20578	27.6	13111	100
2025-3-13 11:57:57.834	WT901BLE68(E947F43FF2E9)	0.256	0.970	-0.039	-1.282	-5.920	4.578	91.31	-13.15	2.61	-9.506	-55.566	-7.252	0.69815	0.70734	-0.06165	0.09143	27.2	13111	100
2025-3-13 11:57:57.876	WT901BLE68(490AABDC0D29)	0.101	-0.961	-0.242	-3.967	2.563	-5.432	-103.74	-5.17	-34.48	-31.262	28.028	49.196	0.58759	-0.75330	0.21179	-0.20578	27.6	13111	100
2025-3-13 11:57:57.933	WT901BLE68(E947F43FF2E9)	0.234	0.968	-0.016	-1.404	-0.122	3.235	91.29	-13.60	3.38	-9.506	-55.566	-7.252	0.69815	0.70734	-0.06165	0.09143	27.2	13111	100
2025-3-13 11:57:57.952	WT901BLE68(490AABDC0D29)	0.128	-0.959	-0.243	-1.770	2.197	-8.118	-103.95	-5.94	-34.69	-31.262	28.028	49.196	0.57465	-0.76059	0.20367	-0.22290	27.6	13111	100
2025-3-13 11:57:58.33	WT901BLE68(E947F43FF2E9)	0.240	0.970	-0.034	1.648	-0.854	0.793	91.38	-13.77	4.54	-9.506	-55.566	-7.252	0.68768	0.71442	-0.05029	0.11850	27.2	13111	100
2025-3-13 11:57:58.76	WT901BLE68(490AABDC0D29)	0.136	-0.961	-0.231	1.160	-0.793	-10.559	-103.93	-6.86	-34.48	-31.262	28.028	49.196	0.57465	-0.76059	0.20367	-0.22290	27.6	13111	100
2025-3-13 11:57:58.151	WT901BLE68(490AABDC0D29)	0.164	-0.964	-0.229	-5.127	2.075	-2.930	-104.14	-7.54	-34.43	-33.222	26.852	49.196	0.57465	-0.76059	0.20367	-0.22290	27.6	13111	100
2025-3-13 11:57:58.160	WT901BLE68(E947F43FF2E9)	0.252	0.963	-0.009	1.587	3.845	0.061	91.54	-13.80	5.66	-9.506	-55.566	-7.252	0.68768	0.71442	-0.05029	0.11850	27.2	13111	100
2025-3-13 11:57:58.233	WT901BLE68(E947F43FF2E9)	0.229	0.980	-0.062	1.526	-0.854	-2.563	91.72	-13.75	6.94	-9.408	-55.860	-6.860	0.68768	0.71442	-0.05029	0.11850	27.2	13111	100
2025-3-13 11:57:58.276	WT901BLE68(490AABDC0D29)	0.108	-0.951	-0.256	-5.127	7.690	7.385	-104.64	-7.55	-34.95	-33.222	26.852	49.196	0.57465	-0.76059	0.20367	-0.22290	27.6	13111	100
2025-3-13 11:57:58.360	WT901BLE68(E947F43FF2E9)	0.202	0.976	-0.026	5.981	3.235	-11.353	91.97	-12.97	8.26	-9.408	-55.860	-6.860	0.68768	0.71442	-0.05029	0.11850	27.2	13111	100
2025-3-13 11:57:58.376	WT901BLE68(490AABDC0D29)	0.104	-0.941	-0.285	3.540	4.700	10.254	-104.57	-6.85	-35.71	-33.222	26.852	49.196	0.56708	-0.76233	0.20798	-0.23215	27.6	13111	100
2025-3-13 11:57:58.434	WT901BLE68(E947F43FF2E9)	0.148	0.958	-0.097	11.963	2.014	-15.381	93.06	-11.69	9.62	-9.408	-55.860	-6.860	0.67221	0.72925	0.00198	0.12735	27.2	13111	100
2025-3-13 11:57:58.477	WT901BLE68(490AABDC0D29)	0.107	-0.952	-0.237	11.536	3.906	11.230	-103.69	-6.09	-36.35	-33.222	26.852	49.196	0.56708	-0.76233	0.20798	-0.23215	27.6	13111	100
2025-3-13 11:57:58.559	WT901BLE68(E947F43FF2E9)	0.151	0.973	-0.089	10.559	2.319	-13.916	93.95	-10.21	10.46	-9.408	-55.860	-6.860	0.67221	0.72925	0.00198	0.12735	27.2	13111	100
2025-3-13 11:57:58.578	WT901BLE68(490AABDC0D29)	0.064	-0.976	-0.201	10.681	12.817	7.568	-102.62	-5.39	-37.13	-32.046	28.126	47.628	0.56708	-0.76233	0.20798	-0.23215	27.6	13111	100
2025-3-13 11:57:58.633	WT901BLE68(E947F43FF2E9)	0.132	0.995	-0.112	1.831	2.075	-8.972	94.47	-9.22	11.50	-9.408	-55.860	-6.860	0.67221	0.72925	0.00198	0.12735	27.2	13111	100
2025-3-13 11:57:58.678	WT901BLE68(490AABDC0D29)	0.090	-0.968	-0.184	15.381	5.310	-0.732	-101.22	-5.32	-37.85	-32.046	28.126	47.628	0.56708	-0.76233	0.20798	-0.23215	27.6	13111	100
2025-3-13 11:57:58.760	WT901BLE68(E947F43FF2E9)	0.146	0.982	-0.082	-3.845	5.859	-2.258	94.33	-8.58	11.75	-5.978	-58.310	-4.900	0.67221	0.72925	0.00198	0.12735	27.2	13111	100
2025-3-13 11:57:58.777	WT901BLE68(490AABDC0D29)	0.105	-0.961	-0.160	15.137	11.353	-4.700	-99.71	-5.72	-38.51	-32.046	28.126	47.628	0.59717	-0.72906	0.22040	-0.25134	27.6	13111	100
2025-3-13 11:57:58.834	WT901BLE68(E947F43FF2E9)	0.144	0.993	-0.079	-5.432	6.897	-2.136	93.98	-8.44	12.39	-5.978	-58.310	-4.900	0.67221	0.72925	0.00198	0.12735	27.2	13111	100
2025-3-13 11:57:58.878	WT901BLE68(490AABDC0D29)	0.148	-0.968	-0.145	17.090	2.747	-9.521	-98.37	-6.44	-38.68	-32.046	28.126	47.628	0.59717	-0.72906	0.22040	-0.25134	27.6	13111	100
2025-3-13 11:57:58.959	WT901BLE68(E947F43FF2E9)	0.155	0.984	-0.069	-3.540	5.432	1.282	93.59	-8.36	12.79	-5.978	-58.310	-4.900	0.67261	0.72797	0.03140	0.12888	27.2	13111	100
2025-3-13 11:57:58.978	WT901BLE68(490AABDC0D29)	0.145	-0.977	-0.143	20.081	1.160	-9.583	-96.50	-7.40	-38.73	-33.516	28.910	42.924	0.59717	-0.72906	0.22040	-0.25134	27.6	13111	100
2025-3-13 11:57:59.34	WT901BLE68(E947F43FF2E9)	0.140	0.974	-0.061	-6.165	-8.972	-0.122	93.17	-8.49	13.10	-5.390	-58.212	-6.272	0.67261	0.72797	0.03140	0.12888	27.2	13111	100
2025-3-13 11:57:59.113	WT901BLE68(490AABDC0D29)	0.155	-1.004	-0.043	19.958	0.122	-1.587	-94.80	-7.81	-38.70	-33.516	28.910	42.924	0.59717	-0.72906	0.22040	-0.25134	27.6	13111	100
2025-3-13 11:57:59.161	WT901BLE68(E947F43FF2E9)	0.136	0.965	-0.035	-3.906	11.475	4.089	92.66	-8.58	13.25	-5.390	-58.212	-6.272	0.67261	0.72797	0.03140	0.12888	27.2	13111	100
2025-3-13 11:57:59.178	WT901BLE68(490AABDC0D29)	0.118	-0.981	-0.041	23.682	4.883	1.404	-92.63	-7.93	-38.76	-33.516	28.910	42.924	0.63684	-0.69275	0.19373	-0.27731	27.6	13111	100
2025-3-13 11:57:59.234	WT901BLE68(E947F43FF2E9)	0.135	1.021	-0.049	5.432	-1.953	-0.366	93.04	-8.53	12.78	-5.390	-58.212	-6.272	0.67422	0.72507	0.03613	0.13522	27.2	13111	100
2025-3-13 11:57:59.326	WT901BLE68(490AABDC0D29)	0.140	-0.999	0.000	28.503	-8.362	2.625	-90.02	-7.60	-38.96	-33.516	28.910	42.924	0.63684	-0.69275	0.19373	-0.27731	27.6	13111	100
2025-3-13 11:57:59.358	WT901BLE68(E947F43FF2E9)	0.156	0.967	-0.076	1.709	16.052	0.549	93.13	-8.48	13.82	-5.390	-58.212	-6.272	0.67422	0.72507	0.03613	0.13522	27.2	13111	100
2025-3-13 11:57:59.378	WT901BLE68(490AABDC0D29)	0.151	-1.170	0.152	47.485	-36.377	-16.052	-86.98	-8.06	-36.82	-34.104	29.596	37.240	0.63684	-0.69275	0.19373	-0.27731	27.6	13111	100
2025-3-13 11:57:59.434	WT901BLE68(E947F43FF2E9)	0.162	0.964	-0.126	7.874	5.676	4.089	93.64	-8.71	14.62	-5.488	-58.310	-6.076	0.67422	0.72507	0.03613	0.13522	27.2	13111	100
2025-3-13 11:57:59.526	WT901BLE68(490AABDC0D29)	0.103	-1.166	0.036	37.842	-158.691	-131.287	-83.14	-15.62	-28.43	-34.104	29.596	37.240	0.63684	-0.69275	0.19373	-0.27731	27.6	13111	100
2025-3-13 11:57:59.560	WT901BLE68(E947F43FF2E9)	0.142	0.953	-0.087	-8.057	16.174	4.761	93.46	-9.17	15.84	-5.488	-58.310	-6.076	0.67422	0.72507	0.03613	0.13522	27.2	13111	100
2025-3-13 11:57:59.578	WT901BLE68(490AABDC0D29)	-0.156	-0.972	-0.351	-43.274	-191.223	-119.080	-92.10	-30.41	-7.52	-34.104	29.596	37.240	0.63675	-0.71832	-0.17038	-0.22235	27.6	13111	100
2025-3-13 11:57:59.634	WT901BLE68(E947F43FF2E9)	0.155	0.995	-0.109	-9.033	-1.160	-6.104	92.69	-9.21	17.04	-5.488	-58.310	-6.076	0.67810	0.71622	0.05356	0.15558	27.2	13111	100
2025-3-13 11:57:59.726	WT901BLE68(490AABDC0D29)	0.077	-0.410	-0.176	-67.688	-104.065	34.973	-106.64	-31.74	6.34	-34.104	29.596	37.240	0.63675	-0.71832	-0.17038	-0.22235	27.6	13111	100
2025-3-13 11:57:59.760	WT901BLE68(E947F43FF2E9)	0.124	0.998	-0.042	-13.550	-1.831	-2.808	91.72	-8.61	16.91	-5.488	-58.310	-6.076	0.67810	0.71622	0.05356	0.15558	27.2	13111	100
2025-3-13 11:57:59.778	WT901BLE68(490AABDC0D29)	0.450	-0.498	0.406	28.015	-32.166	180.603	-107.75	-16.68	4.35	-31.360	18.914	61.250	0.63675	-0.71832	-0.17038	-0.22235	27.6	13111	100
2025-3-13 11:57:59.833	WT901BLE68(E947F43FF2E9)	0.117	0.978	-0.012	-9.155	7.996	7.690	90.57	-8.84	17.27	-5.488	-57.330	-8.918	0.67810	0.71622	0.05356	0.15558	27.2	13111	100
2025-3-13 11:57:59.926	WT901BLE68(490AABDC0D29)	1.141	-1.278	0.147	146.790	-58.655	190.796	-95.81	2.63	0.96	-31.360	18.914	61.250	0.63675	-0.71832	-0.17038	-0.22235	27.6	13111	100
2025-3-13 11:57:59.958	WT901BLE68(E947F43FF2E9)	0.308	0.962	-0.042	-5.676	-1.038	33.508	89.69	-10.62	17.48	-5.488	-57.330	-8.918	0.67810	0.71622	0.05356	0.15558	27.2	13111	100
2025-3-13 11:57:59.977	WT901BLE68(490AABDC0D29)	0.105	-0.827	-0.936	29.358	-29.602	25.879	-85.37	11.52	6.82	-31.360	18.914	61.250	0.72662	-0.67673	0.03671	0.11237	27.6	13111	100
2025-3-13 11:58:0.33	WT901BLE68(E947F43FF2E9)	0.138	1.048	-0.085	-9.094	-4.150	28.564	89.82	-13.95	16.95	-5.488	-57.330	-8.918	0.67752	0.70041	0.00757	0.22418	27.2	13111	100
2025-3-13 11:58:0.125	WT901BLE68(490AABDC0D29)	0.081	-1.225	-0.186	-28.259	-12.146	-58.960	-90.29	6.36	6.51	-31.360	18.914	61.250	0.72662	-0.67673	0.03671	0.11237	27.6	13111	100
2025-3-13 11:58:0.160	WT901BLE68(E947F43FF2E9)	0.300	1.362	-0.129	-10.376	70.251	72.388	88.59	-18.35	19.89	-5.488	-57.330	-8.918	0.67752	0.70041	0.00757	0.22418	27.2	13111	100
2025-3-13 11:58:0.177	WT901BLE68(490AABDC0D29)	-0.126	-1.085	-0.135	-26.184	9.399	-7.446	-93.81	4.23	4.80	-15.974	33.320	57.036	0.72662	-0.67673	0.03671	0.11237	27.6	13111	100
2025-3-13 11:58:0.236	WT901BLE68(E947F43FF2E9)	-0.244	1.060	-0.104	-5.005	71.411	69.397	85.09	-25.19	27.41	-10.192	-48.902	-16.758	0.67752	0.70041	0.00757	0.22418	27.2	13111	100
2025-3-13 11:58:0.326	WT901BLE68(490AABDC0D29)	-0.089	-0.964	-0.156	5.798	1.892	-3.967	-94.89	3.68	2.29	-15.974	33.320	57.036	0.72662	-0.67673	0.03671	0.11237	27.6	13111	100
2025-3-13 11:58:0.360	WT901BLE68(E947F43FF2E9)	-0.026	0.505	0.017	48.767	71.045	-26.184	83.58	-26.05	34.14	-10.192	-48.902	-16.758	0.67752	0.70041	0.00757	0.22418	27.2	13111	100
2025-3-13 11:58:0.377	WT901BLE68(490AABDC0D29)	-0.047	-0.987	-0.129	8.789	-8.728	-7.690	-94.44	3.27	1.39	-15.974	33.320	57.036	0.67902	-0.73346	0.00900	0.02838	27.6	13111	100
2025-3-13 11:58:0.436	WT901BLE68(E947F43FF2E9)	0.027	0.740	0.106	99.854	74.341	-152.039	90.43	-14.49	35.88	-10.192	-48.902	-16.758	0.61682	0.70206	0.26984	0.23172	27.2	13111	100
2025-3-13 11:58:0.525	WT901BLE68(490AABDC0D29)	0.030	-0.996	-0.122	0.977	-9.399	-22.461	-94.41	1.88	1.56	-15.974	33.320	57.036	0.67902	-0.73346	0.00900	0.02838	27.6	13111	100
2025-3-13 11:58:0.560	WT901BLE68(E947F43FF2E9)	0.688	1.263	0.267	84.167	35.339	-175.842	98.69	2.88	43.02	-10.192	-48.902	-16.758	0.61682	0.70206	0.26984	0.23172	27.2	13111	100
2025-3-13 11:58:0.578	WT901BLE68(490AABDC0D29)	0.041	-0.987	-0.098	2.441	-6.470	-31.677	-94.42	-0.68	1.27	-19.894	32.046	57.428	0.67902	-0.73346	0.00900	0.02838	27.6	13111	100
2025-3-13 11:58:0.635	WT901BLE68(E947F43FF2E9)	-0.933	1.168	0.472	-7.202	13.794	-70.313	102.39	12.80	52.06	24.892	-64.190	-7.938	0.61682	0.70206	0.26984	0.23172	27.2	13111	100
2025-3-13 11:58:0.703	WT901BLE68(490AABDC0D29)	0.239	-0.965	-0.156	1.282	2.197	-44.067	-94.30	-4.26	0.69	-19.894	32.046	57.428	0.67902	-0.73346	0.00900	0.02838	27.6	13111	100
2025-3-13 11:58:0.760	WT901BLE68(E947F43FF2E9)	0.177	2.333	0.380	-92.590	246.460	2.136	99.86	8.42	60.08	24.892	-64.190	-7.938	0.61682	0.70206	0.26984	0.23172	27.2	13111	100
2025-3-13 11:58:0.778	WT901BLE68(490AABDC0D29)	-0.066	-1.079	-0.028	20.020	14.832	-52.979	-93.23	-8.64	-0.73	-19.894	32.046	57.428	0.68741	-0.71964	-0.05594	-0.07956	27.6	13111	100
2025-3-13 11:58:0.834	WT901BLE68(E947F43FF2E9)	0.081	1.137	-0.093	-10.010	-28.870	70.313	98.61	1.12	59.43	24.892	-64.190	-7.938	0.61682	0.70206	0.26984	0.23172	27.2	13111	100
2025-3-13 11:58:0.926	WT901BLE68(490AABDC0D29)	-0.666	-1.394	-0.172	-13.672	42.358	-114.380	-92.52	-16.26	-3.06	-19.894	32.046	57.428	0.68741	-0.71964	-0.05594	-0.07956	27.6	13111	100
2025-3-13 11:58:0.960	WT901BLE68(E947F43FF2E9)	0.094	0.973	-0.117	-18.738	30.579	21.118	97.12	-3.21	59.63	24.892	-64.190	-7.938	0.56281	0.65872	0.35602	0.34988	27.2	13111	100
2025-3-13 11:58:0.978	WT901BLE68(490AABDC0D29)	0.004	-0.662	-0.196	-15.930	-121.887	-20.630	-93.46	-24.38	-5.61	-33.908	23.912	57.722	0.68741	-0.71964	-0.05594	-0.07956	27.6	13111	100
2025-3-13 11:58:1.59	WT901BLE68(E947F43FF2E9)	0.092	0.979	-0.117	0.122	9.338	5.920	96.48	-4.69	60.83	24.892	-64.190	-7.938	0.56281	0.65872	0.35602	0.34988	27.2	13111	100
2025-3-13 11:58:1.126	WT901BLE68(490AABDC0D29)	0.229	-0.783	-0.020	20.813	-9.827	117.432	-95.02	-16.98	-2.27	-33.908	23.912	57.722	0.68741	-0.71964	-0.05594	-0.07956	27.6	13111	100
2025-3-13 11:58:1.160	WT901BLE68(E947F43FF2E9)	0.126	0.986	-0.102	-0.732	7.019	12.268	96.33	-5.41	60.99	17.150	-64.190	-10.192	0.56281	0.65872	0.35602	0.34988	27.2	13111	100
2025-3-13 11:58:1.177	WT901BLE68(490AABDC0D29)	0.140	-1.146	-0.051	20.813	-27.710	167.603	-92.69	-0.90	-2.88	-33.908	23.912	57.722	0.69800	-0.71100	0.06689	0.05185	27.6	13111	100
2025-3-13 11:58:1.259	WT901BLE68(E947F43FF2E9)	0.202	0.975	-0.115	-6.409	1.526	26.855	96.19	-7.32	60.86	17.150	-64.190	-10.192	0.56281	0.65872	0.35602	0.34988	27.2	13111	100
2025-3-13 11:58:1.326	WT901BLE68(490AABDC0D29)	0.263	-1.217	0.033	27.954	-73.975	146.912	-89.75	14.57	0.83	-33.908	23.912	57.722	0.69800	-0.71100	0.06689	0.05185	27.6	13111	100
2025-3-13 11:58:1.360	WT901BLE68(E947F43FF2E9)	0.205	0.998	-0.092	-17.517	-4.333	27.405	95.14	-9.90	60.02	17.150	-64.190	-10.192	0.55035	0.66599	0.31604	0.39191	27.2	13111	100
2025-3-13 11:58:1.378	WT901BLE68(490AABDC0D29)	-1.328	-1.019	-0.033	18.066	-22.461	62.439	-85.49	23.06	7.15	3.626	31.850	56.742	0.69800	-0.71100	0.06689	0.05185	27.6	13111	100
2025-3-13 11:58:1.459	WT901BLE68(E947F43FF2E9)	0.241	1.000	-0.108	-28.748	7.141	27.405	93.13	-12.24	59.38	17.150	-64.190	-10.192	0.55035	0.66599	0.31604	0.39191	27.2	13111	100
2025-3-13 11:58:1.525	WT901BLE68(490AABDC0D29)	0.079	-1.176	-0.175	-16.663	41.931	-38.025	-86.54	20.49	6.36	3.626	31.850	56.742	0.69800	-0.71100	0.06689	0.05185	27.6	13111	100
2025-3-13 11:58:1.560	WT901BLE68(E947F43FF2E9)	0.188	1.379	-0.039	-49.377	56.885	47.180	89.16	-15.68	60.90	10.192	-62.132	-14.700	0.55035	0.66599	0.31604	0.39191	27.2	13111	100
2025-3-13 11:58:1.577	WT901BLE68(490AABDC0D29)	-0.232	-1.357	-0.329	-55.603	1.526	-68.970	-91.30	12.94	5.10	3.626	31.850	56.742	0.67542	-0.73126	0.03784	0.08694	27.6	13111	100
2025-3-13 11:58:1.661	WT901BLE68(E947F43FF2E9)	-0.131	1.238	-0.179	-78.125	57.434	92.529	81.60	-21.92	65.62	10.192	-62.132	-14.700	0.55035	0.66599	0.31604	0.39191	27.2	13111	100
2025-3-13 11:58:1.703	WT901BLE68(490AABDC0D29)	-0.107	-0.957	-0.125	-28.259	31.616	-20.142	-95.69	9.21	2.05	3.626	31.850	56.742	0.67542	-0.73126	0.03784	0.08694	27.6	13111	100
2025-3-13 11:58:1.777	WT901BLE68(490AABDC0D29)	-0.101	-0.979	-0.162	-16.541	3.479	-33.508	-97.95	6.10	0.60	-8.330	29.106	64.190	0.67542	-0.73126	0.03784	0.08694	27.6	13111	100
2025-3-13 11:58:1.785	WT901BLE68(E947F43FF2E9)	-0.044	0.508	-0.093	-26.550	18.188	18.127	74.60	-26.81	69.76	10.192	-62.132	-14.700	0.55487	0.58862	0.18494	0.55795	27.2	13111	100
2025-3-13 11:58:1.859	WT901BLE68(E947F43FF2E9)	0.079	0.694	-0.053	53.589	-18.188	-75.623	77.71	-22.89	66.25	10.192	-62.132	-14.700	0.55487	0.58862	0.18494	0.55795	27.2	13111	100
2025-3-13 11:58:1.927	WT901BLE68(490AABDC0D29)	0.020	-0.964	-0.194	-2.136	-4.456	-34.363	-98.82	2.97	0.36	-8.330	29.106	64.190	0.67542	-0.73126	0.03784	0.08694	27.6	13111	100
2025-3-13 11:58:1.983	WT901BLE68(E947F43FF2E9)	0.090	1.084	-0.067	103.027	-41.016	-147.644	88.88	-11.60	58.00	12.740	-57.918	-17.346	0.55487	0.58862	0.18494	0.55795	27.2	13111	100
2025-3-13 11:58:2.26	WT901BLE68(490AABDC0D29)	-0.009	-0.988	-0.170	-3.113	4.028	-25.757	-99.04	0.34	0.48	-8.330	29.106	64.190	0.64731	-0.76212	-0.00470	-0.00702	27.6	13111	100
2025-3-13 11:58:2.60	WT901BLE68(E947F43FF2E9)	0.588	1.411	-0.050	116.699	-46.387	-161.377	100.46	4.63	54.29	12.740	-57.918	-17.346	0.55487	0.58862	0.18494	0.55795	27.2	13111	100
2025-3-13 11:58:2.127	WT901BLE68(490AABDC0D29)	0.062	-0.969	-0.213	-5.615	3.845	-30.518	-99.56	-2.12	-0.55	-8.330	29.106	64.190	0.64731	-0.76212	-0.00470	-0.00702	27.6	13111	100
2025-3-13 11:58:2.183	WT901BLE68(E947F43FF2E9)	-0.474	1.180	0.259	47.852	-20.813	-67.261	108.38	16.86	53.69	12.740	-57.918	-17.346	0.56738	0.67676	0.44421	0.15045	27.2	13111	100
2025-3-13 11:58:2.202	WT901BLE68(490AABDC0D29)	0.181	-0.970	-0.196	-2.258	7.751	-42.969	-99.99	-5.42	-1.42	-17.542	27.146	65.268	0.64731	-0.76212	-0.00470	-0.00702	27.6	13111	100
2025-3-13 11:58:2.260	WT901BLE68(E947F43FF2E9)	0.376	0.931	-0.905	-11.108	-175.293	106.445	105.77	13.04	47.91	12.740	-57.918	-17.346	0.56738	0.67676	0.44421	0.15045	27.2	13111	100
2025-3-13 11:58:2.329	WT901BLE68(490AABDC0D29)	-0.074	-1.190	-0.169	-5.371	3.418	-72.327	-100.41	-10.67	-1.91	-17.542	27.146	65.268	0.64731	-0.76212	-0.00470	-0.00702	27.6	13111	100
2025-3-13 11:58:2.385	WT901BLE68(E947F43FF2E9)	0.086	0.682	-0.625	51.697	-63.599	104.248	102.25	5.63	41.25	19.992	-63.896	-7.546	0.56738	0.67676	0.44421	0.15045	27.2	13111	100
2025-3-13 11:58:2.426	WT901BLE68(490AABDC0D29)	-0.171	-1.464	-0.262	-38.513	82.825	-115.967	-102.01	-19.13	-4.44	-17.542	27.146	65.268	0.60101	-0.76315	-0.07874	-0.22379	27.6	13111	100
2025-3-13 11:58:2.460	WT901BLE68(E947F43FF2E9)	0.087	1.043	-0.136	-26.245	30.334	40.466	100.74	0.21	41.17	19.992	-63.896	-7.546	0.56738	0.67676	0.44421	0.15045	27.2	13111	100
2025-3-13 11:58:2.529	WT901BLE68(490AABDC0D29)	-0.011	-0.731	-0.197	-21.362	58.899	-51.025	-100.63	-29.43	-13.34	-17.542	27.146	65.268	0.60101	-0.76315	-0.07874	-0.22379	27.6	13111	100
2025-3-13 11:58:2.583	WT901BLE68(E947F43FF2E9)	0.096	0.976	-0.141	-9.155	6.958	26.245	98.96	-3.22	41.63	19.992	-63.896	-7.546	0.59918	0.71667	0.24997	0.25449	27.2	13111	100
2025-3-13 11:58:2.626	WT901BLE68(490AABDC0D29)	0.223	-0.695	0.040	22.217	-12.512	132.751	-99.78	-22.22	-15.81	-32.144	23.520	61.250	0.60101	-0.76315	-0.07874	-0.22379	27.6	13111	100
2025-3-13 11:58:2.660	WT901BLE68(E947F43FF2E9)	0.167	0.985	-0.120	-9.766	8.423	28.381	97.94	-5.83	41.97	19.992	-63.896	-7.546	0.59918	0.71667	0.24997	0.25449	27.2	13111	100
2025-3-13 11:58:2.728	WT901BLE68(490AABDC0D29)	0.509	-1.037	0.014	52.124	-24.963	212.219	-95.48	-3.25	-16.68	-32.144	23.520	61.250	0.60101	-0.76315	-0.07874	-0.22379	27.6	13111	100
2025-3-13 11:58:2.783	WT901BLE68(E947F43FF2E9)	0.203	0.963	-0.092	-8.301	-2.136	29.236	96.91	-8.64	41.89	9.016	-62.524	-10.976	0.59918	0.71667	0.24997	0.25449	27.2	13111	100
2025-3-13 11:58:2.825	WT901BLE68(490AABDC0D29)	0.674	-1.483	-0.078	70.679	74.646	184.875	-89.47	17.48	-18.97	-32.144	23.520	61.250	0.71536	-0.63760	0.28568	-0.00192	27.6	13111	100
2025-3-13 11:58:2.861	WT901BLE68(E947F43FF2E9)	0.278	1.030	-0.101	-14.526	-3.784	29.297	96.04	-11.32	41.19	9.016	-62.524	-10.976	0.59918	0.71667	0.24997	0.25449	27.2	13111	100
2025-3-13 11:58:2.928	WT901BLE68(490AABDC0D29)	-0.340	-0.996	-0.222	-19.043	44.739	-37.964	-89.94	23.33	-26.59	-32.144	23.520	61.250	0.71536	-0.63760	0.28568	-0.00192	27.6	13111	100
2025-3-13 11:58:2.983	WT901BLE68(E947F43FF2E9)	0.202	1.142	-0.110	-32.715	6.042	30.029	93.49	-14.09	41.18	9.016	-62.524	-10.976	0.60696	0.70309	0.17108	0.32843	27.2	13111	100
2025-3-13 11:58:3.26	WT901BLE68(490AABDC0D29)	-0.255	-0.962	0.036	-19.287	14.709	-36.133	-91.30	18.96	-23.29	-6.272	35.084	55.860	0.71536	-0.63760	0.28568	-0.00192	27.6	13111	100
2025-3-13 11:58:3.60	WT901BLE68(E947F43FF2E9)	0.377	1.089	0.021	-46.570	0.610	45.166	89.46	-17.71	41.75	9.016	-62.524	-10.976	0.60696	0.70309	0.17108	0.32843	27.2	13111	100
2025-3-13 11:58:3.128	WT901BLE68(490AABDC0D29)	-0.256	-0.997	-0.079	-19.287	0.549	-21.362	-93.11	16.00	-22.83	-6.272	35.084	55.860	0.71536	-0.63760	0.28568	-0.00192	27.6	13111	100
2025-3-13 11:58:3.183	WT901BLE68(E947F43FF2E9)	0.519	0.974	-0.032	-42.297	24.719	50.598	84.86	-22.20	42.07	-0.882	-55.272	-19.502	0.60696	0.70309	0.17108	0.32843	27.2	13111	100
2025-3-13 11:58:3.215	WT901BLE68(490AABDC0D29)	-0.135	-0.945	-0.120	-15.381	-1.282	-28.198	-94.68	13.29	-22.42	-6.272	35.084	55.860	0.67126	-0.70944	0.20822	-0.05115	27.6	13111	100
2025-3-13 11:58:3.260	WT901BLE68(E947F43FF2E9)	0.170	0.906	0.163	-36.743	50.720	38.269	79.49	-25.75	46.82	-0.882	-55.272	-19.502	0.60696	0.70309	0.17108	0.32843	27.2	13111	100
2025-3-13 11:58:3.326	WT901BLE68(490AABDC0D29)	-0.116	-0.986	-0.155	-16.296	1.770	-23.376	-96.34	10.72	-21.60	-6.272	35.084	55.860	0.67126	-0.70944	0.20822	-0.05115	27.6	13111	100
2025-3-13 11:58:3.383	WT901BLE68(E947F43FF2E9)	0.352	0.670	0.215	-11.963	10.010	-11.353	75.15	-26.59	52.19	-0.882	-55.272	-19.502	0.63229	0.61157	0.09863	0.46512	27.2	13111	100
2025-3-13 11:58:3.427	WT901BLE68(490AABDC0D29)	-0.207	-0.986	-0.161	-9.399	-3.662	-19.531	-97.41	8.78	-21.16	-12.740	32.536	59.878	0.67126	-0.70944	0.20822	-0.05115	27.6	13111	100
2025-3-13 11:58:3.459	WT901BLE68(E947F43FF2E9)	-0.843	0.662	0.174	27.649	-30.884	-35.461	77.86	-25.28	48.96	-0.882	-55.272	-19.502	0.63229	0.61157	0.09863	0.46512	27.2	13111	100
2025-3-13 11:58:3.526	WT901BLE68(490AABDC0D29)	-0.034	-0.944	-0.204	-5.615	-10.742	-18.677	-97.91	7.17	-20.29	-12.740	32.536	59.878	0.67126	-0.70944	0.20822	-0.05115	27.6	13111	100
2025-3-13 11:58:3.584	WT901BLE68(E947F43FF2E9)	1.057	0.529	-0.044	93.933	-118.103	-157.959	84.73	-17.29	42.09	0.686	-55.860	-20.482	0.63229	0.61157	0.09863	0.46512	27.2	13111	100
2025-3-13 11:58:3.627	WT901BLE68(490AABDC0D29)	0.003	-0.977	-0.181	1.831	-5.371	-13.184	-98.12	5.42	-19.57	-12.740	32.536	59.878	0.65164	-0.73975	0.14740	-0.07938	27.6	13111	100
2025-3-13 11:58:3.660	WT901BLE68(E947F43FF2E9)	-0.155	1.240	0.469	-30.701	5.554	-1.892	93.32	-2.86	34.85	0.686	-55.860	-20.482	0.63229	0.61157	0.09863	0.46512	27.2	13111	100
2025-3-13 11:58:3.726	WT901BLE68(490AABDC0D29)	0.039	-0.952	-0.202	-1.038	-18.066	-23.254	-98.00	3.59	-18.18	-12.740	32.536	59.878	0.65164	-0.73975	0.14740	-0.07938	27.6	13111	100
2025-3-13 11:58:3.784	WT901BLE68(E947F43FF2E9)	0.063	1.200	0.392	6.348	21.790	-8.789	93.22	-3.59	37.84	0.686	-55.860	-20.482	0.64044	0.69321	0.21884	0.24756	27.2	13111	100
2025-3-13 11:58:3.828	WT901BLE68(490AABDC0D29)	-0.070	-0.975	-0.187	-0.427	-0.977	0.427	-98.07	2.65	-16.84	-15.680	31.654	60.662	0.65164	-0.73975	0.14740	-0.07938	27.6	13111	100
2025-3-13 11:58:3.857	WT901BLE68(E947F43FF2E9)	0.077	0.966	-0.040	4.578	-2.319	-0.427	93.55	-4.03	39.89	0.686	-55.860	-20.482	0.64044	0.69321	0.21884	0.24756	27.2	13111	100
2025-3-13 11:58:3.927	WT901BLE68(490AABDC0D29)	-0.041	-0.964	-0.191	-4.700	13.367	11.719	-98.36	3.26	-17.68	-15.680	31.654	60.662	0.65164	-0.73975	0.14740	-0.07938	27.6	13111	100
2025-3-13 11:58:3.986	WT901BLE68(E947F43FF2E9)	-0.045	1.028	-0.027	6.897	2.075	-9.705	93.92	-3.82	40.10	10.878	-62.720	-12.446	0.64044	0.69321	0.21884	0.24756	27.2	13111	100
2025-3-13 11:58:4.27	WT901BLE68(490AABDC0D29)	-0.062	-0.980	-0.173	-0.793	6.531	3.784	-98.87	3.93	-18.63	-15.680	31.654	60.662	0.64423	-0.74579	0.14676	-0.08435	27.6	13111	100
2025-3-13 11:58:4.59	WT901BLE68(E947F43FF2E9)	0.083	1.104	-0.016	-0.061	-8.301	5.737	94.52	-3.46	40.59	10.878	-62.720	-12.446	0.64044	0.69321	0.21884	0.24756	27.2	13111	100
2025-3-13 11:58:4.127	WT901BLE68(490AABDC0D29)	-0.018	-0.972	-0.212	-0.916	1.770	-10.559	-99.04	3.32	-19.23	-15.680	31.654	60.662	0.64423	-0.74579	0.14676	-0.08435	27.6	13111	100
2025-3-13 11:58:4.185	WT901BLE68(E947F43FF2E9)	0.046	1.076	-0.104	-10.254	14.404	29.358	93.46	-5.33	40.21	10.878	-62.720	-12.446	0.62997	0.69278	0.21649	0.27606	27.2	13111	100
2025-3-13 11:58:4.202	WT901BLE68(490AABDC0D29)	-0.022	-0.998	-0.188	12.817	3.723	1.831	-98.76	2.83	-19.42	-16.366	31.948	59.780	0.64423	-0.74579	0.14676	-0.08435	27.6	13111	100
2025-3-13 11:58:4.259	WT901BLE68(E947F43FF2E9)	0.147	1.070	0.018	-14.954	-2.258	34.607	92.35	-8.14	41.05	10.878	-62.720	-12.446	0.62997	0.69278	0.21649	0.27606	27.2	13111	100
2025-3-13 11:58:4.327	WT901BLE68(490AABDC0D29)	-0.084	-0.958	-0.137	14.587	3.723	1.953	-97.09	2.93	-19.75	-16.366	31.948	59.780	0.64423	-0.74579	0.14676	-0.08435	27.6	13111	100
2025-3-13 11:58:4.385	WT901BLE68(E947F43FF2E9)	0.042	0.974	0.018	-32.959	-5.188	40.283	90.02	-11.54	39.62	3.920	-60.074	-15.288	0.62997	0.69278	0.21649	0.27606	27.2	13111	100
2025-3-13 11:58:4.427	WT901BLE68(490AABDC0D29)	-0.016	-0.979	-0.092	-2.563	7.751	-4.395	-96.65	2.99	-20.49	-16.366	31.948	59.780	0.65283	-0.73660	0.14447	-0.10126	27.6	13111	100
2025-3-13 11:58:4.459	WT901BLE68(E947F43FF2E9)	-0.135	0.795	-0.035	-29.175	36.621	-6.470	86.33	-13.30	40.84	3.920	-60.074	-15.288	0.62997	0.69278	0.21649	0.27606	27.2	13111	100
2025-3-13 11:58:4.528	WT901BLE68(490AABDC0D29)	-0.031	-0.977	-0.145	-7.874	-3.723	-15.686	-97.58	1.73	-19.95	-16.366	31.948	59.780	0.65283	-0.73660	0.14447	-0.10126	27.6	13111	100
2025-3-13 11:58:4.585	WT901BLE68(E947F43FF2E9)	-0.115	0.890	-0.050	20.813	16.235	-63.965	85.97	-8.93	42.73	3.920	-60.074	-15.288	0.66138	0.65619	0.21173	0.29507	27.2	13111	100
2025-3-13 11:58:4.626	WT901BLE68(490AABDC0D29)	0.012	-0.971	-0.188	-1.831	-7.080	-13.672	-98.00	0.42	-19.38	-18.620	31.556	59.486	0.65283	-0.73660	0.14447	-0.10126	27.6	13111	100
2025-3-13 11:58:4.685	WT901BLE68(E947F43FF2E9)	0.033	1.123	-0.022	51.941	7.751	-97.107	90.43	-0.01	41.54	3.920	-60.074	-15.288	0.66138	0.65619	0.21173	0.29507	27.2	13111	100
2025-3-13 11:58:4.726	WT901BLE68(490AABDC0D29)	0.066	-0.978	-0.180	1.404	0.549	-14.771	-98.13	-0.83	-18.99	-18.620	31.556	59.486	0.65283	-0.73660	0.14447	-0.10126	27.6	13111	100
2025-3-13 11:58:4.785	WT901BLE68(E947F43FF2E9)	0.340	1.086	0.028	42.297	-5.920	-82.520	95.17	9.29	40.58	18.620	-64.876	-11.466	0.66138	0.65619	0.21173	0.29507	27.2	13111	100
2025-3-13 11:58:4.826	WT901BLE68(490AABDC0D29)	0.077	-0.990	-0.150	11.047	6.104	-18.738	-97.49	-2.44	-19.07	-18.620	31.556	59.486	0.65051	-0.73923	0.10541	-0.13831	27.6	13111	100
2025-3-13 11:58:4.919	WT901BLE68(E947F43FF2E9)	-1.493	0.971	0.036	15.625	52.795	-22.461	98.19	13.44	44.79	18.620	-64.876	-11.466	0.66138	0.65619	0.21173	0.29507	27.2	13111	100
2025-3-13 11:58:4.928	WT901BLE68(490AABDC0D29)	0.232	-0.997	-0.137	16.296	7.935	-31.189	-96.11	-4.87	-19.90	-18.620	31.556	59.486	0.65051	-0.73923	0.10541	-0.13831	27.6	13111	100
2025-3-13 11:58:4.983	WT901BLE68(E947F43FF2E9)	0.122	1.342	-1.128	4.700	-98.328	47.729	97.91	8.08	47.61	18.620	-64.876	-11.466	0.62015	0.66620	0.34274	0.23239	27.2	13111	100
2025-3-13 11:58:5.27	WT901BLE68(490AABDC0D29)	-0.039	-1.120	0.027	32.288	-30.151	-50.842	-94.01	-9.04	-18.45	-25.970	31.066	56.056	0.65051	-0.73923	0.10541	-0.13831	27.6	13111	100
2025-3-13 11:58:5.86	WT901BLE68(E947F43FF2E9)	0.012	0.963	-0.063	-0.793	-19.348	50.659	96.60	1.73	48.16	18.620	-64.876	-11.466	0.62015	0.66620	0.34274	0.23239	27.2	13111	100
2025-3-13 11:58:5.127	WT901BLE68(490AABDC0D29)	0.078	-1.202	-0.109	16.479	26.794	-84.412	-92.08	-15.04	-17.81	-25.970	31.066	56.056	0.65051	-0.73923	0.10541	-0.13831	27.6	13111	100
2025-3-13 11:58:5.185	WT901BLE68(E947F43FF2E9)	0.058	1.001	-0.139	8.423	13.245	22.705	97.01	-1.03	50.12	14.798	-66.640	-8.232	0.62015	0.66620	0.34274	0.23239	27.2	13111	100
2025-3-13 11:58:5.202	WT901BLE68(490AABDC0D29)	-0.044	-0.972	-0.329	-8.423	39.612	-94.116	-90.23	-23.96	-21.23	-25.970	31.066	56.056	0.63245	-0.72888	-0.04358	-0.25836	27.6	13111	100
2025-3-13 11:58:5.285	WT901BLE68(E947F43FF2E9)	0.079	0.996	-0.133	-2.075	6.775	22.583	96.99	-3.45	50.78	14.798	-66.640	-8.232	0.62015	0.66620	0.34274	0.23239	27.2	13111	100
2025-3-13 11:58:5.328	WT901BLE68(490AABDC0D29)	0.057	-0.776	-0.079	-11.597	-11.047	52.368	-95.87	-24.09	-15.58	-25.970	31.066	56.056	0.63245	-0.72888	-0.04358	-0.25836	27.6	13111	100
2025-3-13 11:58:5.408	WT901BLE68(E947F43FF2E9)	0.112	0.990	-0.146	-5.371	-5.859	16.235	96.61	-5.19	50.45	14.798	-66.640	-8.232	0.58731	0.68802	0.28622	0.31567	27.2	13111	100
2025-3-13 11:58:5.427	WT901BLE68(490AABDC0D29)	0.145	-0.889	0.056	8.972	-14.709	162.231	-95.98	-12.07	-17.29	-27.636	31.752	53.508	0.63245	-0.72888	-0.04358	-0.25836	27.6	13111	100
2025-3-13 11:58:5.508	WT901BLE68(E947F43FF2E9)	0.196	0.990	-0.104	-9.338	-2.197	18.738	95.78	-6.77	49.70	14.798	-66.640	-8.232	0.58731	0.68802	0.28622	0.31567	27.2	13111	100
2025-3-13 11:58:5.527	WT901BLE68(490AABDC0D29)	0.509	-1.190	0.044	33.630	-86.670	204.529	-93.57	6.90	-15.46	-27.636	31.752	53.508	0.63245	-0.72888	-0.04358	-0.25836	27.6	13111	100
2025-3-13 11:58:5.609	WT901BLE68(E947F43FF2E9)	0.219	0.998	-0.143	4.211	-4.150	34.180	95.53	-9.25	48.89	8.134	-65.758	-9.212	0.58731	0.68802	0.28622	0.31567	27.2	13111	100
2025-3-13 11:58:5.627	WT901BLE68(490AABDC0D29)	0.061	-1.164	-0.415	42.969	-15.381	105.652	-86.79	23.40	-8.50	-27.636	31.752	53.508	0.72177	-0.65012	0.21671	0.09656	27.6	13111	100
2025-3-13 11:58:5.684	WT901BLE68(E947F43FF2E9)	0.252	1.011	-0.121	-13.672	11.414	34.973	95.37	-12.63	48.55	8.134	-65.758	-9.212	0.58731	0.68802	0.28622	0.31567	27.2	13111	100
2025-3-13 11:58:5.727	WT901BLE68(490AABDC0D29)	-0.275	-0.979	-0.133	-31.433	-34.607	-43.518	-87.23	23.96	-9.02	-27.636	31.752	53.508	0.72177	-0.65012	0.21671	0.09656	27.6	13111	100
2025-3-13 11:58:5.826	WT901BLE68(490AABDC0D29)	-0.148	-0.839	0.046	-44.922	-79.529	-57.068	-87.84	17.72	0.66	-5.684	39.886	55.174	0.72177	-0.65012	0.21671	0.09656	27.6	13111	100
2025-3-13 11:58:5.835	WT901BLE68(E947F43FF2E9)	0.103	1.252	-0.204	-37.659	15.503	59.082	92.87	-16.64	48.63	8.134	-65.758	-9.212	0.57828	0.69098	0.19397	0.38782	27.2	13111	100
2025-3-13 11:58:5.882	WT901BLE68(E947F43FF2E9)	-0.594	1.551	-0.262	-69.031	92.041	129.456	86.91	-25.24	52.48	8.134	-65.758	-9.212	0.57828	0.69098	0.19397	0.38782	27.2	13111	100
2025-3-13 11:58:5.926	WT901BLE68(490AABDC0D29)	-0.068	-1.069	0.040	-32.715	-8.911	-48.279	-91.39	12.40	3.04	-5.684	39.886	55.174	0.72177	-0.65012	0.21671	0.09656	27.6	13111	100
2025-3-13 11:58:6.10	WT901BLE68(E947F43FF2E9)	0.073	0.360	-0.339	-36.560	-57.434	10.132	74.78	-32.94	59.52	-6.370	-51.646	-24.990	0.57828	0.69098	0.19397	0.38782	27.2	13111	100
2025-3-13 11:58:6.27	WT901BLE68(490AABDC0D29)	-0.145	-1.011	-0.128	-17.578	1.587	-31.982	-94.20	7.76	2.82	-5.684	39.886	55.174	0.67139	-0.73932	0.02374	0.04456	27.6	13111	100
2025-3-13 11:58:6.83	WT901BLE68(E947F43FF2E9)	0.349	0.720	-0.172	61.218	-16.602	-155.945	81.53	-25.62	48.46	-6.370	-51.646	-24.990	0.57828	0.69098	0.19397	0.38782	27.2	13111	100
2025-3-13 11:58:6.126	WT901BLE68(490AABDC0D29)	-0.060	-0.971	-0.115	-11.353	15.259	-24.353	-95.70	5.13	0.96	-5.684	39.886	55.174	0.67139	-0.73932	0.02374	0.04456	27.6	13111	100
2025-3-13 11:58:6.209	WT901BLE68(E947F43FF2E9)	0.399	1.312	-0.073	122.864	-24.048	-187.622	93.76	-7.25	42.60	-6.370	-51.646	-24.990	0.60364	0.70987	0.28040	0.23013	27.2	13111	100
2025-3-13 11:58:6.227	WT901BLE68(490AABDC0D29)	-0.050	-0.979	-0.148	-9.338	7.813	-34.119	-96.79	2.09	-1.21	-5.684	39.886	55.174	0.67139	-0.73932	0.02374	0.04456	27.6	13111	100
2025-3-13 11:58:6.285	WT901BLE68(E947F43FF2E9)	0.827	1.497	0.564	86.243	-52.246	-136.719	105.36	8.81	44.43	-6.370	-51.646	-24.990	0.60364	0.70987	0.28040	0.23013	27.2	13111	100
2025-3-13 11:58:6.352	WT901BLE68(490AABDC0D29)	-0.042	-0.984	-0.169	-10.254	5.737	-39.185	-97.68	-1.19	-2.69	-19.110	37.240	60.956	0.67139	-0.73932	0.02374	0.04456	27.6	13111	100
2025-3-13 11:58:6.408	WT901BLE68(E947F43FF2E9)	0.375	1.001	0.027	-31.860	-43.762	90.820	105.68	10.88	41.02	25.970	-75.460	-3.234	0.60364	0.70987	0.28040	0.23013	27.2	13111	100
2025-3-13 11:58:6.427	WT901BLE68(490AABDC0D29)	-0.059	-1.119	-0.228	-19.287	-11.292	-77.881	-99.42	-6.49	-2.82	-19.110	37.240	60.956	0.62540	-0.77155	-0.04486	-0.10703	27.6	13111	100
2025-3-13 11:58:6.484	WT901BLE68(E947F43FF2E9)	0.063	0.917	-0.328	29.541	-34.851	122.620	103.04	2.24	40.45	25.970	-75.460	-3.234	0.60364	0.70987	0.28040	0.23013	27.2	13111	100
2025-3-13 11:58:6.553	WT901BLE68(490AABDC0D29)	0.099	-1.589	-0.140	-51.880	79.773	-113.342	-102.37	-15.60	-5.41	-19.110	37.240	60.956	0.62540	-0.77155	-0.04486	-0.10703	27.6	13111	100
2025-3-13 11:58:6.608	WT901BLE68(E947F43FF2E9)	0.087	1.021	-0.105	1.038	8.484	44.434	102.67	-4.55	39.71	25.970	-75.460	-3.234	0.57080	0.74371	0.23465	0.25674	27.2	13111	100
2025-3-13 11:58:6.629	WT901BLE68(490AABDC0D29)	-0.135	-0.664	-0.175	-40.710	91.858	-84.229	-102.91	-28.22	-15.02	-41.552	25.578	60.074	0.62540	-0.77155	-0.04486	-0.10703	27.6	13111	100
2025-3-13 11:58:6.683	WT901BLE68(E947F43FF2E9)	0.137	0.983	-0.178	-9.644	10.986	24.963	102.07	-8.25	41.09	25.970	-75.460	-3.234	0.57080	0.74371	0.23465	0.25674	27.2	13111	100
2025-3-13 11:58:6.753	WT901BLE68(490AABDC0D29)	0.037	-0.727	0.089	22.156	15.808	104.309	-100.33	-23.09	-21.29	-41.552	25.578	60.074	0.62540	-0.77155	-0.04486	-0.10703	27.6	13111	100
2025-3-13 11:58:6.809	WT901BLE68(E947F43FF2E9)	0.138	0.970	-0.143	-14.465	2.869	15.625	100.52	-10.13	41.78	8.820	-74.578	-5.292	0.57080	0.74371	0.23465	0.25674	27.2	13111	100
2025-3-13 11:58:6.829	WT901BLE68(490AABDC0D29)	0.062	-1.074	0.050	46.326	-27.832	178.650	-95.28	-6.32	-23.81	-41.552	25.578	60.074	0.69843	-0.69153	0.16934	-0.07208	27.6	13111	100
2025-3-13 11:58:6.884	WT901BLE68(E947F43FF2E9)	0.249	0.988	-0.128	-18.433	9.399	28.015	98.72	-12.07	42.39	8.820	-74.578	-5.292	0.57080	0.74371	0.23465	0.25674	27.2	13111	100
2025-3-13 11:58:6.953	WT901BLE68(490AABDC0D29)	0.083	-1.358	-0.014	67.322	-74.951	185.303	-88.80	12.34	-17.75	-41.552	25.578	60.074	0.69843	-0.69153	0.16934	-0.07208	27.6	13111	100
2025-3-13 11:58:7.10	WT901BLE68(E947F43FF2E9)	0.236	0.965	-0.128	-25.879	20.508	31.616	96.22	-15.14	43.54	8.820	-74.578	-5.292	0.57956	0.71164	0.18680	0.35022	27.2	13111	100
2025-3-13 11:58:7.28	WT901BLE68(490AABDC0D29)	0.973	-0.974	-0.009	47.485	17.151	78.796	-81.73	24.16	-15.03	3.822	37.730	47.922	0.69843	-0.69153	0.16934	-0.07208	27.6	13111	100
2025-3-13 11:58:7.82	WT901BLE68(E947F43FF2E9)	0.296	1.105	0.024	-42.847	28.198	33.875	92.40	-18.24	46.13	8.820	-74.578	-5.292	0.57956	0.71164	0.18680	0.35022	27.2	13111	100
2025-3-13 11:58:7.153	WT901BLE68(490AABDC0D29)	-0.086	-0.909	-0.462	-19.714	-14.160	-62.683	-79.22	25.44	-11.61	3.822	37.730	47.922	0.69843	-0.69153	0.16934	-0.07208	27.6	13111	100
2025-3-13 11:58:7.210	WT901BLE68(E947F43FF2E9)	-0.004	1.415	-0.102	-72.021	20.874	55.847	85.68	-22.33	48.35	-1.372	-65.366	-18.620	0.57956	0.71164	0.18680	0.35022	27.2	13111	100
2025-3-13 11:58:7.228	WT901BLE68(490AABDC0D29)	-0.228	-1.000	-0.353	-43.030	41.260	-62.927	-86.57	16.35	-17.12	3.822	37.730	47.922	0.70767	-0.67856	0.19379	-0.03296	27.6	13111	100
2025-3-13 11:58:7.283	WT901BLE68(E947F43FF2E9)	0.331	1.116	-0.320	-83.008	77.576	70.251	76.10	-27.69	54.62	-1.372	-65.366	-18.620	0.57956	0.71164	0.18680	0.35022	27.2	13111	100
2025-3-13 11:58:7.353	WT901BLE68(490AABDC0D29)	-0.197	-1.015	-0.021	-22.522	3.174	-30.945	-90.63	12.20	-18.83	3.822	37.730	47.922	0.70767	-0.67856	0.19379	-0.03296	27.6	13111	100
2025-3-13 11:58:7.411	WT901BLE68(E947F43FF2E9)	-0.120	0.471	-0.506	-13.062	-143.799	38.696	74.30	-35.51	47.15	-1.372	-65.366	-18.620	0.61789	0.63544	0.00269	0.46292	27.2	13111	100
2025-3-13 11:58:7.428	WT901BLE68(490AABDC0D29)	-0.102	-0.965	-0.095	-13.062	2.502	-29.419	-92.54	9.15	-18.78	-9.016	36.456	55.076	0.70767	-0.67856	0.19379	-0.03296	27.6	13111	100
2025-3-13 11:58:7.483	WT901BLE68(E947F43FF2E9)	0.029	0.613	0.151	73.547	22.095	-86.182	79.76	-31.23	45.09	-1.372	-65.366	-18.620	0.61789	0.63544	0.00269	0.46292	27.2	13111	100
2025-3-13 11:58:7.553	WT901BLE68(490AABDC0D29)	-0.078	-0.992	-0.099	-7.935	-2.380	-31.311	-93.68	6.11	-18.29	-9.016	36.456	55.076	0.70767	-0.67856	0.19379	-0.03296	27.6	13111	100
2025-3-13 11:58:7.612	WT901BLE68(E947F43FF2E9)	0.048	1.055	0.110	142.029	14.221	-172.119	93.04	-16.20	41.13	3.920	-63.210	-13.426	0.61789	0.63544	0.00269	0.46292	27.2	13111	100
2025-3-13 11:58:7.628	WT901BLE68(490AABDC0D29)	-0.051	-0.998	-0.125	-6.653	9.888	-29.602	-94.55	3.28	-18.33	-9.016	36.456	55.076	0.66641	-0.72659	0.12961	-0.10513	27.6	13111	100
2025-3-13 11:58:7.683	WT901BLE68(E947F43FF2E9)	1.128	1.615	0.141	148.315	-4.700	-210.144	106.95	3.39	45.87	3.920	-63.210	-13.426	0.61789	0.63544	0.00269	0.46292	27.2	13111	100
2025-3-13 11:58:7.753	WT901BLE68(490AABDC0D29)	0.055	-1.000	-0.126	-8.911	13.306	-46.143	-95.43	-0.08	-19.49	-9.016	36.456	55.076	0.66641	-0.72659	0.12961	-0.10513	27.6	13111	100
2025-3-13 11:58:7.813	WT901BLE68(E947F43FF2E9)	0.847	1.078	0.431	-16.907	10.559	41.992	114.11	13.68	51.99	3.920	-63.210	-13.426	0.52899	0.72107	0.41083	0.17700	27.2	13111	100
2025-3-13 11:58:7.828	WT901BLE68(490AABDC0D29)	-0.050	-1.020	-0.153	-1.709	14.893	-66.345	-96.06	-5.52	-20.34	-23.226	33.320	56.154	0.66641	-0.72659	0.12961	-0.10513	27.6	13111	100
2025-3-13 11:58:7.883	WT901BLE68(E947F43FF2E9)	0.028	1.167	0.016	-28.076	-26.550	109.009	108.58	5.23	51.38	3.920	-63.210	-13.426	0.52899	0.72107	0.41083	0.17700	27.2	13111	100
2025-3-13 11:58:7.951	WT901BLE68(490AABDC0D29)	-0.203	-1.523	-0.091	-23.926	52.185	-119.690	-96.47	-14.33	-22.58	-23.226	33.320	56.154	0.66641	-0.72659	0.12961	-0.10513	27.6	13111	100
2025-3-13 11:58:8.14	WT901BLE68(E947F43FF2E9)	0.172	0.963	-0.154	-9.094	-24.597	61.157	106.12	-3.55	49.33	14.700	-69.286	-1.470	0.52899	0.72107	0.41083	0.17700	27.2	13111	100
2025-3-13 11:58:8.28	WT901BLE68(490AABDC0D29)	-0.269	-0.886	-0.300	1.953	66.467	-141.541	-94.88	-28.61	-29.52	-23.226	33.320	56.154	0.66641	-0.72659	0.12961	-0.10513	27.6	13111	100
2025-3-13 11:58:8.85	WT901BLE68(E947F43FF2E9)	0.156	0.984	-0.206	-10.803	2.808	43.518	104.97	-8.56	48.02	14.700	-69.286	-1.470	0.52899	0.72107	0.41083	0.17700	27.2	13111	100
2025-3-13 11:58:8.153	WT901BLE68(490AABDC0D29)	0.058	-0.602	-0.268	17.761	-135.437	41.687	-98.62	-30.19	-22.20	-23.226	33.320	56.154	0.58441	-0.75418	-0.02649	-0.29807	27.6	13111	100
2025-3-13 11:58:8.217	WT901BLE68(E947F43FF2E9)	0.229	0.968	-0.181	-13.733	13.428	32.532	103.49	-12.05	48.14	14.700	-69.286	-1.470	0.52704	0.73621	0.24969	0.34317	27.2	13111	100
2025-3-13 11:58:8.228	WT901BLE68(490AABDC0D29)	0.140	-0.928	-0.146	63.232	-73.242	168.762	-96.92	-15.51	-16.48	-20.090	35.574	58.506	0.58441	-0.75418	-0.02649	-0.29807	27.6	13111	100
2025-3-13 11:58:8.319	WT901BLE68(E947F43FF2E9)	0.270	0.959	-0.162	-17.151	20.996	32.715	101.60	-15.35	49.26	14.700	-69.286	-1.470	0.52704	0.73621	0.24969	0.34317	27.2	13111	100
2025-3-13 11:58:8.353	WT901BLE68(490AABDC0D29)	0.622	-1.278	-0.206	61.279	-44.922	218.323	-91.15	5.43	-12.18	-20.090	35.574	58.506	0.58441	-0.75418	-0.02649	-0.29807	27.6	13111	100
2025-3-13 11:58:8.418	WT901BLE68(E947F43FF2E9)	0.286	0.984	-0.151	-22.461	23.376	32.410	99.22	-18.54	50.88	2.842	-66.738	-6.958	0.52704	0.73621	0.24969	0.34317	27.2	13111	100
2025-3-13 11:58:8.428	WT901BLE68(490AABDC0D29)	0.436	-1.401	-0.118	50.171	-8.240	187.927	-85.61	25.45	-9.84	-20.090	35.574	58.506	0.58441	-0.75418	-0.02649	-0.29807	27.6	13111	100
2025-3-13 11:58:8.519	WT901BLE68(E947F43FF2E9)	0.147	1.076	-0.079	-40.100	22.339	48.401	95.62	-22.23	52.62	2.842	-66.738	-6.958	0.52704	0.73621	0.24969	0.34317	27.2	13111	100
2025-3-13 11:58:8.553	WT901BLE68(490AABDC0D29)	-0.048	-1.168	0.007	-43.762	-69.946	-115.479	-84.66	22.87	-4.01	-20.090	35.574	58.506	0.72763	-0.65723	0.16516	0.10587	27.6	13111	100
2025-3-13 11:58:8.621	WT901BLE68(E947F43FF2E9)	0.548	1.723	-0.254	-59.753	49.927	110.046	90.07	-29.04	54.65	2.842	-66.738	-6.958	0.52133	0.66672	0.11435	0.52011	27.2	13111	100
2025-3-13 11:58:8.627	WT901BLE68(490AABDC0D29)	-0.102	-0.962	-0.039	-41.992	-1.404	-70.007	-88.53	15.46	-2.99	-20.090	35.574	58.506	0.72763	-0.65723	0.16516	0.10587	27.6	13111	100
2025-3-13 11:58:8.719	WT901BLE68(E947F43FF2E9)	-0.162	0.584	0.162	-91.553	122.864	102.478	75.84	-38.25	64.82	2.842	-66.738	-6.958	0.52133	0.66672	0.11435	0.52011	27.2	13111	100
2025-3-13 11:58:8.753	WT901BLE68(490AABDC0D29)	-0.088	-1.026	-0.109	-27.466	2.869	-54.016	-92.04	8.88	-2.77	2.646	37.044	57.918	0.72763	-0.65723	0.16516	0.10587	27.6	13111	100
2025-3-13 11:58:8.819	WT901BLE68(E947F43FF2E9)	-0.157	0.286	-0.127	9.888	-35.889	-81.787	73.11	-38.23	61.32	-5.488	-54.488	-22.736	0.52133	0.66672	0.11435	0.52011	27.2	13111	100
2025-3-13 11:58:8.827	WT901BLE68(490AABDC0D29)	-0.094	-0.999	-0.121	-8.545	17.761	-30.273	-94.08	4.44	-3.43	2.646	37.044	57.918	0.72763	-0.65723	0.16516	0.10587	27.6	13111	100
2025-3-13 11:58:8.920	WT901BLE68(E947F43FF2E9)	0.247	0.899	-0.021	119.812	-22.156	-203.552	87.46	-23.32	48.64	-5.488	-54.488	-22.736	0.52133	0.66672	0.11435	0.52011	27.2	13111	100
2025-3-13 11:58:8.953	WT901BLE68(490AABDC0D29)	0.036	-0.987	-0.130	-5.127	18.738	-36.499	-95.04	1.27	-5.17	2.646	37.044	57.918	0.67435	-0.73685	0.03976	-0.02557	27.6	13111	100
2025-3-13 11:58:9.25	WT901BLE68(490AABDC0D29)	0.065	-0.999	-0.161	-8.240	1.770	-60.242	-96.00	-3.28	-5.77	2.646	37.044	57.918	0.67435	-0.73685	0.03976	-0.02557	27.6	13111	100
2025-3-13 11:58:9.35	WT901BLE68(E947F43FF2E9)	1.726	1.656	-0.051	160.706	53.101	-266.418	102.46	1.49	49.99	-5.488	-54.488	-22.736	0.53574	0.68939	0.44360	0.20209	27.2	13111	100
2025-3-13 11:58:9.120	WT901BLE68(E947F43FF2E9)	0.863	1.210	0.663	13.000	25.452	-28.137	114.14	14.86	62.55	-5.488	-54.488	-22.736	0.53574	0.68939	0.44360	0.20209	27.2	13111	100
2025-3-13 11:58:9.176	WT901BLE68(490AABDC0D29)	-0.118	-1.094	-0.154	-8.728	4.578	-85.754	-96.91	-9.79	-5.43	-13.622	36.162	61.250	0.67435	-0.73685	0.03976	-0.02557	27.6	13111	100
2025-3-13 11:58:9.234	WT901BLE68(E947F43FF2E9)	0.001	1.160	-0.223	-21.362	-87.524	127.136	107.76	5.99	59.86	29.988	-59.094	1.470	0.53574	0.68939	0.44360	0.20209	27.2	13111	100
2025-3-13 11:58:9.253	WT901BLE68(490AABDC0D29)	0.087	-1.561	-0.088	-31.555	35.828	-146.545	-98.43	-20.71	-6.45	-13.622	36.162	61.250	0.61105	-0.73541	-0.11703	-0.26831	27.6	13111	100
2025-3-13 11:58:9.323	WT901BLE68(E947F43FF2E9)	0.130	0.913	0.111	-51.025	42.175	25.085	103.70	-2.62	57.32	29.988	-59.094	1.470	0.53574	0.68939	0.44360	0.20209	27.2	13111	100
2025-3-13 11:58:9.353	WT901BLE68(490AABDC0D29)	-0.169	-0.707	-0.440	-17.212	11.902	-88.989	-97.49	-34.29	-11.24	-13.622	36.162	61.250	0.61105	-0.73541	-0.11703	-0.26831	27.6	13111	100
2025-3-13 11:58:9.433	WT901BLE68(E947F43FF2E9)	0.059	1.007	-0.181	-11.230	-1.221	23.804	101.39	-6.44	59.74	29.988	-59.094	1.470	0.52710	0.68192	0.34695	0.36972	27.2	13111	100
2025-3-13 11:58:9.453	WT901BLE68(490AABDC0D29)	0.139	-0.621	0.034	35.889	6.042	125.732	-98.39	-27.19	-9.06	-13.622	36.162	61.250	0.61105	-0.73541	-0.11703	-0.26831	27.6	13111	100
2025-3-13 11:58:9.508	WT901BLE68(E947F43FF2E9)	0.158	0.985	-0.139	-20.508	-1.831	30.640	99.41	-8.61	60.63	29.988	-59.094	1.470	0.52710	0.68192	0.34695	0.36972	27.2	13111	100
2025-3-13 11:58:9.576	WT901BLE68(490AABDC0D29)	0.468	-1.106	0.135	61.951	-31.067	240.906	-93.28	-5.44	-9.57	-16.072	29.204	60.074	0.61105	-0.73541	-0.11703	-0.26831	27.6	13111	100
2025-3-13 11:58:9.633	WT901BLE68(E947F43FF2E9)	0.169	1.000	-0.064	-32.898	4.639	44.800	96.50	-12.38	60.88	19.404	-59.976	-4.802	0.52710	0.68192	0.34695	0.36972	27.2	13111	100
2025-3-13 11:58:9.652	WT901BLE68(490AABDC0D29)	0.398	-1.862	-0.237	64.087	-21.423	269.409	-85.17	20.20	-7.05	-16.072	29.204	60.074	0.61105	-0.73541	-0.11703	-0.26831	27.6	13111	100
2025-3-13 11:58:9.726	WT901BLE68(E947F43FF2E9)	0.063	1.048	-0.066	-40.771	12.390	55.359	92.77	-16.81	62.12	19.404	-59.976	-4.802	0.52710	0.68192	0.34695	0.36972	27.2	13111	100
2025-3-13 11:58:9.753	WT901BLE68(490AABDC0D29)	0.037	-1.533	0.470	-35.461	-3.845	-108.704	-81.79	23.62	-0.03	-16.072	29.204	60.074	0.73962	-0.64297	0.15009	0.13000	27.6	13111	100
2025-3-13 11:58:9.836	WT901BLE68(E947F43FF2E9)	-0.182	1.940	-0.278	-74.707	33.752	128.540	86.82	-25.78	64.46	19.404	-59.976	-4.802	0.50110	0.61887	0.16724	0.58124	27.2	13111	100
2025-3-13 11:58:9.853	WT901BLE68(490AABDC0D29)	-0.131	-0.948	-0.262	-45.227	14.832	-74.829	-88.85	13.63	-1.03	-16.072	29.204	60.074	0.73962	-0.64297	0.15009	0.13000	27.6	13111	100
2025-3-13 11:58:9.910	WT901BLE68(E947F43FF2E9)	-0.082	0.425	-0.189	-63.416	70.129	67.566	74.30	-35.08	73.82	19.404	-59.976	-4.802	0.50110	0.61887	0.16724	0.58124	27.2	13111	100
2025-3-13 11:58:9.976	WT901BLE68(490AABDC0D29)	-0.150	-1.025	-0.119	-12.024	0.549	-38.147	-90.74	9.04	-1.34	2.940	22.834	59.976	0.73962	-0.64297	0.15009	0.13000	27.6	13111	100
2025-3-13 11:58:10.33	WT901BLE68(E947F43FF2E9)	-0.082	0.735	-0.165	102.295	15.747	-154.846	82.86	-29.24	64.72	12.838	-54.586	-9.506	0.50110	0.61887	0.16724	0.58124	27.2	13111	100
2025-3-13 11:58:10.51	WT901BLE68(490AABDC0D29)	-0.119	-0.966	-0.103	0.732	2.197	-28.687	-91.50	6.17	-1.51	2.940	22.834	59.976	0.73962	-0.64297	0.15009	0.13000	27.6	13111	100
2025-3-13 11:58:10.111	WT901BLE68(E947F43FF2E9)	0.502	1.372	0.124	140.015	-4.028	-192.993	96.76	-10.27	63.45	12.838	-54.586	-9.506	0.50110	0.61887	0.16724	0.58124	27.2	13111	100
2025-3-13 11:58:10.176	WT901BLE68(490AABDC0D29)	-0.020	-0.969	-0.076	-3.845	-4.456	-42.908	-91.81	2.55	-1.24	2.940	22.834	59.976	0.69577	-0.71777	0.02328	0.00842	27.6	13111	100
2025-3-13 11:58:10.235	WT901BLE68(E947F43FF2E9)	0.235	1.554	0.439	101.685	-49.500	-162.170	109.04	9.10	66.04	12.838	-54.586	-9.506	0.52634	0.64584	0.50952	0.21475	27.2	13111	100
2025-3-13 11:58:10.253	WT901BLE68(490AABDC0D29)	-0.021	-1.006	-0.116	-1.099	12.268	-58.411	-92.36	-2.07	-1.70	2.940	22.834	59.976	0.69577	-0.71777	0.02328	0.00842	27.6	13111	100
2025-3-13 11:58:10.310	WT901BLE68(E947F43FF2E9)	0.692	1.315	-0.173	-47.974	-73.792	124.512	109.98	12.23	65.47	12.838	-54.586	-9.506	0.52634	0.64584	0.50952	0.21475	27.2	13111	100
2025-3-13 11:58:10.376	WT901BLE68(490AABDC0D29)	-0.291	-1.416	-0.167	-8.301	21.729	-110.718	-92.72	-9.45	-2.76	-7.840	23.814	60.466	0.69577	-0.71777	0.02328	0.00842	27.6	13111	100
2025-3-13 11:58:10.436	WT901BLE68(E947F43FF2E9)	0.069	1.086	-0.484	23.499	-59.143	124.512	105.27	1.59	61.14	22.148	-54.586	-1.960	0.52634	0.64584	0.50952	0.21475	27.2	13111	100
2025-3-13 11:58:10.452	WT901BLE68(490AABDC0D29)	-0.388	-1.343	-0.284	-15.625	85.449	-160.156	-92.85	-22.45	-8.95	-7.840	23.814	60.466	0.69577	-0.71777	0.02328	0.00842	27.6	13111	100
2025-3-13 11:58:10.510	WT901BLE68(E947F43FF2E9)	0.028	1.037	-0.149	-22.644	29.724	28.381	103.60	-5.10	61.14	22.148	-54.586	-1.960	0.52634	0.64584	0.50952	0.21475	27.2	13111	100
2025-3-13 11:58:10.578	WT901BLE68(490AABDC0D29)	0.007	-0.603	-0.262	-21.057	-132.202	57.556	-96.43	-27.81	-8.53	-7.840	23.814	60.466	0.63162	-0.73370	-0.10583	-0.22678	27.6	13111	100
2025-3-13 11:58:10.635	WT901BLE68(E947F43FF2E9)	0.089	0.975	-0.151	-11.963	9.460	18.372	101.37	-7.36	63.36	22.148	-54.586	-1.960	0.51199	0.67712	0.36172	0.38522	27.2	13111	100
2025-3-13 11:58:10.652	WT901BLE68(490AABDC0D29)	0.691	-0.911	0.034	37.659	-48.523	210.205	-95.47	-10.91	-7.65	-8.134	25.382	57.232	0.63162	-0.73370	-0.10583	-0.22678	27.6	13111	100
2025-3-13 11:58:10.709	WT901BLE68(E947F43FF2E9)	0.098	0.999	-0.131	-15.564	4.883	29.785	99.85	-9.57	63.44	22.148	-54.586	-1.960	0.51199	0.67712	0.36172	0.38522	27.2	13111	100
2025-3-13 11:58:10.778	WT901BLE68(490AABDC0D29)	1.151	-1.565	-0.194	66.467	-25.818	232.422	-90.33	13.27	-2.81	-8.134	25.382	57.232	0.63162	-0.73370	-0.10583	-0.22678	27.6	13111	100
2025-3-13 11:58:10.835	WT901BLE68(E947F43FF2E9)	-0.017	1.094	-0.137	-28.503	7.813	64.209	97.62	-13.54	63.20	12.936	-54.684	-5.978	0.51199	0.67712	0.36172	0.38522	27.2	13111	100
2025-3-13 11:58:10.853	WT901BLE68(490AABDC0D29)	0.117	-0.921	-0.000	-36.804	-113.525	-52.185	-87.57	19.04	2.15	-8.134	25.382	57.232	0.69510	-0.70663	0.02875	0.12866	27.6	13111	100
2025-3-13 11:58:10.912	WT901BLE68(E947F43FF2E9)	-0.521	2.085	-0.314	-48.706	70.740	154.236	94.22	-23.62	65.36	12.936	-54.684	-5.978	0.51199	0.67712	0.36172	0.38522	27.2	13111	100
2025-3-13 11:58:10.976	WT901BLE68(490AABDC0D29)	-0.113	-0.922	-0.190	-30.701	-24.719	-63.049	-90.16	12.43	8.27	-8.134	25.382	57.232	0.69510	-0.70663	0.02875	0.12866	27.6	13111	100
2025-3-13 11:58:11.36	WT901BLE68(E947F43FF2E9)	-0.073	-0.183	-0.092	-13.916	69.885	36.255	84.46	-35.47	72.89	12.936	-54.684	-5.978	0.47302	0.65103	0.21634	0.55270	27.2	13111	100
2025-3-13 11:58:11.52	WT901BLE68(490AABDC0D29)	-0.068	-1.010	-0.116	-13.367	-11.780	-47.546	-91.99	6.97	8.99	-2.450	28.224	55.370	0.69510	-0.70663	0.02875	0.12866	27.6	13111	100
2025-3-13 11:58:11.114	WT901BLE68(E947F43FF2E9)	0.547	0.558	-0.246	69.214	-58.777	-199.341	90.91	-24.55	64.07	12.936	-54.684	-5.978	0.47302	0.65103	0.21634	0.55270	27.2	13111	100
2025-3-13 11:58:11.176	WT901BLE68(490AABDC0D29)	-0.093	-0.988	-0.111	-1.404	-0.793	-26.062	-92.88	3.49	9.14	-2.450	28.224	55.370	0.69510	-0.70663	0.02875	0.12866	27.6	13111	100
2025-3-13 11:58:11.235	WT901BLE68(E947F43FF2E9)	-0.024	1.746	0.146	112.793	-119.507	-238.586	101.58	1.67	59.79	26.362	-66.640	-3.920	0.47302	0.65103	0.21634	0.55270	27.2	13111	100
2025-3-13 11:58:11.253	WT901BLE68(490AABDC0D29)	0.011	-0.999	-0.114	-4.883	3.601	-38.635	-93.46	0.54	8.28	-2.450	28.224	55.370	0.68201	-0.72861	-0.05902	0.02036	27.6	13111	100
2025-3-13 11:58:11.315	WT901BLE68(E947F43FF2E9)	-0.118	1.057	-0.206	-52.124	-39.734	58.777	103.01	6.87	60.99	26.362	-66.640	-3.920	0.47302	0.65103	0.21634	0.55270	27.2	13111	100
2025-3-13 11:58:11.378	WT901BLE68(490AABDC0D29)	-0.008	-1.015	-0.167	0.488	23.865	-30.762	-93.95	-3.06	6.39	-2.450	28.224	55.370	0.68201	-0.72861	-0.05902	0.02036	27.6	13111	100
2025-3-13 11:58:11.435	WT901BLE68(E947F43FF2E9)	0.147	0.938	-0.033	-9.583	-22.644	67.017	100.95	0.66	59.19	26.362	-66.640	-3.920	0.54364	0.68161	0.34872	0.34375	27.2	13111	100
2025-3-13 11:58:11.453	WT901BLE68(490AABDC0D29)	0.149	-1.115	-0.143	-5.066	23.804	-57.312	-94.05	-7.41	3.17	-14.896	28.322	55.566	0.68201	-0.72861	-0.05902	0.02036	27.6	13111	100
2025-3-13 11:58:11.514	WT901BLE68(E947F43FF2E9)	0.137	1.011	-0.037	-10.498	5.005	53.589	99.75	-5.97	58.62	26.362	-66.640	-3.920	0.54364	0.68161	0.34872	0.34375	27.2	13111	100
2025-3-13 11:58:11.578	WT901BLE68(490AABDC0D29)	0.165	-1.230	-0.039	-14.343	61.768	-84.534	-94.47	-14.24	-1.61	-14.896	28.322	55.566	0.68201	-0.72861	-0.05902	0.02036	27.6	13111	100
2025-3-13 11:58:11.635	WT901BLE68(E947F43FF2E9)	0.122	0.975	-0.065	-0.366	8.362	25.391	98.71	-9.72	60.03	18.032	-70.952	-4.998	0.54364	0.68161	0.34872	0.34375	27.2	13111	100
2025-3-13 11:58:11.653	WT901BLE68(490AABDC0D29)	-0.092	-0.802	-0.187	-2.747	42.114	-54.382	-93.18	-21.24	-7.44	-14.896	28.322	55.566	0.66803	-0.71927	-0.06564	-0.17883	27.6	13111	100
2025-3-13 11:58:11.716	WT901BLE68(E947F43FF2E9)	0.164	0.984	-0.076	-4.761	8.240	13.245	98.13	-11.50	61.39	18.032	-70.952	-4.998	0.54364	0.68161	0.34872	0.34375	27.2	13111	100
2025-3-13 11:58:11.778	WT901BLE68(490AABDC0D29)	0.049	-0.774	-0.046	8.850	-33.752	50.598	-92.68	-19.54	-8.61	-14.896	28.322	55.566	0.66803	-0.71927	-0.06564	-0.17883	27.6	13111	100
2025-3-13 11:58:11.835	WT901BLE68(E947F43FF2E9)	0.157	0.996	-0.061	-3.052	4.944	7.080	97.53	-12.38	62.46	18.032	-70.952	-4.998	0.51743	0.66922	0.32928	0.41937	27.2	13111	100
2025-3-13 11:58:11.853	WT901BLE68(490AABDC0D29)	0.003	-1.039	0.077	32.532	-2.014	136.169	-91.15	-8.25	-7.82	-8.232	28.714	52.234	0.66803	-0.71927	-0.06564	-0.17883	27.6	13111	100
2025-3-13 11:58:11.934	WT901BLE68(E947F43FF2E9)	0.191	0.986	-0.035	-8.301	12.573	4.639	96.43	-12.80	64.01	18.032	-70.952	-4.998	0.51743	0.66922	0.32928	0.41937	27.2	13111	100
2025-3-13 11:58:11.978	WT901BLE68(490AABDC0D29)	0.077	-1.218	0.137	48.523	16.113	149.292	-87.24	6.92	-8.47	-8.232	28.714	52.234	0.66803	-0.71927	-0.06564	-0.17883	27.6	13111	100
2025-3-13 11:58:12.35	WT901BLE68(E947F43FF2E9)	0.202	0.984	-0.033	-15.137	9.155	10.986	94.86	-13.60	65.49	15.484	-70.266	-7.252	0.51743	0.66922	0.32928	0.41937	27.2	13111	100
2025-3-13 11:58:12.53	WT901BLE68(490AABDC0D29)	-0.010	-1.101	0.103	49.438	35.767	103.516	-82.05	19.96	-8.20	-8.232	28.714	52.234	0.66803	-0.71927	-0.06564	-0.17883	27.6	13111	100
2025-3-13 11:58:12.135	WT901BLE68(E947F43FF2E9)	0.215	1.002	0.011	-20.569	8.789	21.484	92.62	-15.12	66.47	15.484	-70.266	-7.252	0.51743	0.66922	0.32928	0.41937	27.2	13111	100
2025-3-13 11:58:12.178	WT901BLE68(490AABDC0D29)	-1.221	-0.870	-0.071	8.911	35.645	4.089	-80.32	24.87	-11.15	-8.232	28.714	52.234	0.75592	-0.61102	0.22598	0.06351	27.6	13111	100
2025-3-13 11:58:12.235	WT901BLE68(E947F43FF2E9)	0.264	1.104	0.069	-45.532	-4.639	38.635	89.64	-17.79	66.78	15.484	-70.266	-7.252	0.54010	0.62955	0.25034	0.49918	27.2	13111	100
2025-3-13 11:58:12.253	WT901BLE68(490AABDC0D29)	0.101	-1.110	0.448	-30.090	-5.920	-19.592	-82.64	20.97	-11.20	-8.232	28.714	52.234	0.75592	-0.61102	0.22598	0.06351	27.6	13111	100
2025-3-13 11:58:12.335	WT901BLE68(E947F43FF2E9)	0.146	1.296	-0.024	-84.839	-12.085	52.490	83.46	-21.88	66.01	15.484	-70.266	-7.252	0.54010	0.62955	0.25034	0.49918	27.2	13111	100
2025-3-13 11:58:12.429	WT901BLE68(490AABDC0D29)	-0.229	-1.066	-0.179	-60.303	-9.705	-62.744	-86.26	14.21	-6.45	-2.646	27.636	53.704	0.75592	-0.61102	0.22598	0.06351	27.6	13111	100
2025-3-13 11:58:12.487	WT901BLE68(E947F43FF2E9)	-0.297	1.306	-0.303	-122.437	85.266	87.280	73.20	-28.13	68.39	15.484	-70.266	-7.252	0.54010	0.62955	0.25034	0.49918	27.2	13111	100
2025-3-13 11:58:12.487	WT901BLE68(490AABDC0D29)	-0.059	-1.003	-0.105	-50.781	9.216	-46.265	-92.16	9.49	-8.04	-2.646	27.636	53.704	0.75592	-0.61102	0.22598	0.06351	27.6	13111	100
2025-3-13 11:58:12.534	WT901BLE68(E947F43FF2E9)	-0.384	0.236	-0.668	-10.315	-167.358	-0.122	65.63	-35.39	66.97	2.940	-49.882	-24.892	0.54010	0.62955	0.25034	0.49918	27.2	13111	100
2025-3-13 11:58:12.577	WT901BLE68(490AABDC0D29)	-0.047	-0.996	-0.158	-20.142	5.676	-42.053	-95.53	4.57	-8.34	-2.646	27.636	53.704	0.66306	-0.74454	0.06546	-0.04050	27.6	13111	100
2025-3-13 11:58:12.653	WT901BLE68(490AABDC0D29)	-0.031	-0.987	-0.158	-8.423	7.996	-35.461	-96.88	1.00	-8.81	-2.646	27.636	53.704	0.66306	-0.74454	0.06546	-0.04050	27.6	13111	100
2025-3-13 11:58:12.659	WT901BLE68(E947F43FF2E9)	-0.105	0.809	-0.023	162.537	-2.258	-189.941	81.56	-27.19	53.77	2.940	-49.882	-24.892	0.56927	0.70377	0.26428	0.33267	27.2	13111	100
2025-3-13 11:58:12.735	WT901BLE68(E947F43FF2E9)	1.524	2.028	0.243	198.242	-54.504	-267.639	102.71	-2.74	49.35	2.940	-49.882	-24.892	0.56927	0.70377	0.26428	0.33267	27.2	13111	100
2025-3-13 11:58:12.776	WT901BLE68(490AABDC0D29)	0.075	-0.979	-0.160	-10.925	2.380	-54.504	-97.85	-3.14	-9.15	-14.994	23.716	60.270	0.66306	-0.74454	0.06546	-0.04050	27.6	13111	100
2025-3-13 11:58:12.861	WT901BLE68(E947F43FF2E9)	0.772	1.138	0.589	-20.935	-0.854	42.297	111.74	13.07	49.31	21.364	-64.974	-2.254	0.56927	0.70377	0.26428	0.33267	27.2	13111	100
2025-3-13 11:58:12.878	WT901BLE68(490AABDC0D29)	-0.073	-1.385	-0.298	-25.085	-4.089	-96.069	-99.82	-10.15	-8.09	-14.994	23.716	60.270	0.66306	-0.74454	0.06546	-0.04050	27.6	13111	100
2025-3-13 11:58:12.934	WT901BLE68(E947F43FF2E9)	0.023	1.345	-0.452	-18.921	-51.147	113.953	106.57	2.08	39.39	21.364	-64.974	-2.254	0.56927	0.70377	0.26428	0.33267	27.2	13111	100
2025-3-13 11:58:12.977	WT901BLE68(490AABDC0D29)	-0.069	-1.353	-0.181	-63.782	133.057	-136.414	-103.46	-22.50	-13.19	-14.994	23.716	60.270	0.58267	-0.77884	-0.03159	-0.22977	27.6	13111	100
2025-3-13 11:58:13.61	WT901BLE68(E947F43FF2E9)	0.111	1.032	-0.085	-4.150	8.972	47.119	104.98	-5.50	40.65	21.364	-64.974	-2.254	0.55246	0.75027	0.23666	0.27518	27.2	13111	100
2025-3-13 11:58:13.77	WT901BLE68(490AABDC0D29)	-0.022	-0.561	0.151	-37.720	108.032	6.775	-100.41	-30.05	-27.80	-14.994	23.716	60.270	0.58267	-0.77884	-0.03159	-0.22977	27.6	13111	100
2025-3-13 11:58:13.135	WT901BLE68(E947F43FF2E9)	0.169	1.002	-0.155	-14.282	8.423	27.039	103.44	-9.46	42.30	21.364	-64.974	-2.254	0.55246	0.75027	0.23666	0.27518	27.2	13111	100
2025-3-13 11:58:13.176	WT901BLE68(490AABDC0D29)	0.223	-0.861	0.282	22.705	14.465	166.016	-98.23	-17.32	-32.55	-35.084	21.364	57.428	0.58267	-0.77884	-0.03159	-0.22977	27.6	13111	100
2025-3-13 11:58:13.260	WT901BLE68(E947F43FF2E9)	0.187	0.998	-0.080	-21.484	0.366	21.973	101.22	-11.78	43.01	7.546	-63.896	-5.978	0.55246	0.75027	0.23666	0.27518	27.2	13111	100
2025-3-13 11:58:13.278	WT901BLE68(490AABDC0D29)	0.113	-1.228	0.215	55.664	68.542	214.294	-92.47	3.13	-37.95	-35.084	21.364	57.428	0.58267	-0.77884	-0.03159	-0.22977	27.6	13111	100
2025-3-13 11:58:13.335	WT901BLE68(E947F43FF2E9)	0.216	0.989	-0.060	-27.588	0.671	27.832	98.54	-14.05	43.58	7.546	-63.896	-5.978	0.55246	0.75027	0.23666	0.27518	27.2	13111	100
2025-3-13 11:58:13.376	WT901BLE68(490AABDC0D29)	-2.277	-1.383	0.034	48.462	11.353	204.224	-87.06	23.01	-40.89	-35.084	21.364	57.428	0.71603	-0.57791	0.37442	-0.11407	27.6	13111	100
2025-3-13 11:58:13.461	WT901BLE68(E947F43FF2E9)	0.120	1.074	-0.013	-48.584	3.174	25.391	94.54	-16.39	44.12	7.546	-63.896	-5.978	0.60751	0.68222	0.14639	0.37936	27.2	13111	100
2025-3-13 11:58:13.478	WT901BLE68(490AABDC0D29)	-0.223	-1.458	0.807	-12.817	70.068	-26.123	-84.94	27.03	-37.39	-35.084	21.364	57.428	0.71603	-0.57791	0.37442	-0.11407	27.6	13111	100
2025-3-13 11:58:13.535	WT901BLE68(E947F43FF2E9)	0.107	1.446	-0.066	-82.397	13.184	60.364	87.98	-20.13	44.69	7.546	-63.896	-5.978	0.60751	0.68222	0.14639	0.37936	27.2	13111	100
2025-3-13 11:58:13.625	WT901BLE68(490AABDC0D29)	-0.221	-1.156	-0.333	-52.246	-7.629	-57.312	-89.82	21.71	-41.12	-9.702	31.948	52.528	0.71603	-0.57791	0.37442	-0.11407	27.6	13111	100
2025-3-13 11:58:13.659	WT901BLE68(E947F43FF2E9)	-0.096	0.967	-0.330	-88.013	58.167	59.631	77.63	-26.13	47.74	0.000	-47.824	-24.402	0.60751	0.68222	0.14639	0.37936	27.2	13111	100
2025-3-13 11:58:13.678	WT901BLE68(490AABDC0D29)	-0.159	-0.973	-0.097	-28.015	19.653	-39.734	-93.45	17.06	-41.12	-9.702	31.948	52.528	0.71603	-0.57791	0.37442	-0.11407	27.6	13111	100
2025-3-13 11:58:13.733	WT901BLE68(E947F43FF2E9)	0.029	0.362	-0.151	-11.902	-103.394	4.639	72.61	-29.18	48.28	0.000	-47.824	-24.402	0.60751	0.68222	0.14639	0.37936	27.2	13111	100
2025-3-13 11:58:13.825	WT901BLE68(490AABDC0D29)	-0.118	-0.984	-0.148	-11.963	12.329	-30.273	-95.92	13.08	-41.48	-9.702	31.948	52.528	0.65210	-0.66293	0.33264	-0.15649	27.6	13111	100
2025-3-13 11:58:13.860	WT901BLE68(E947F43FF2E9)	0.171	0.391	0.053	71.350	4.456	-74.829	80.39	-25.01	41.82	0.000	-47.824	-24.402	0.62274	0.70126	0.13705	0.31863	27.2	13111	100
2025-3-13 11:58:13.878	WT901BLE68(490AABDC0D29)	-0.049	-0.974	-0.163	-5.615	0.793	-32.959	-96.99	9.82	-40.90	-9.702	31.948	52.528	0.65210	-0.66293	0.33264	-0.15649	27.6	13111	100
2025-3-13 11:58:13.933	WT901BLE68(E947F43FF2E9)	-0.006	1.090	0.060	110.352	-14.343	-103.760	91.82	-15.50	37.73	0.000	-47.824	-24.402	0.62274	0.70126	0.13705	0.31863	27.2	13111	100
2025-3-13 11:58:14.25	WT901BLE68(490AABDC0D29)	-0.033	-0.976	-0.184	-0.854	1.038	-31.860	-97.43	6.51	-39.67	-21.952	27.930	56.644	0.65210	-0.66293	0.33264	-0.15649	27.6	13111	100
2025-3-13 11:58:14.60	WT901BLE68(E947F43FF2E9)	0.498	1.229	0.121	119.995	-32.043	-126.770	103.09	-3.57	37.81	15.092	-62.622	-6.762	0.62274	0.70126	0.13705	0.31863	27.2	13111	100
2025-3-13 11:58:14.126	WT901BLE68(490AABDC0D29)	0.033	-0.975	-0.184	1.709	4.517	-33.142	-97.48	3.28	-38.75	-21.952	27.930	56.644	0.65210	-0.66293	0.33264	-0.15649	27.6	13111	100
2025-3-13 11:58:14.135	WT901BLE68(E947F43FF2E9)	0.175	1.262	0.196	56.885	26.733	-119.629	111.28	8.38	41.96	15.092	-62.622	-6.762	0.62274	0.70126	0.13705	0.31863	27.2	13111	100
2025-3-13 11:58:14.224	WT901BLE68(490AABDC0D29)	0.081	-0.991	-0.165	3.540	7.874	-49.438	-97.39	-0.72	-38.18	-21.952	27.930	56.644	0.62216	-0.71121	0.24170	-0.22034	27.6	13111	100
2025-3-13 11:58:14.261	WT901BLE68(E947F43FF2E9)	0.434	1.089	0.165	-36.987	16.174	62.378	111.75	4.97	53.27	15.092	-62.622	-6.762	0.52750	0.72556	0.35040	0.26910	27.2	13111	100
2025-3-13 11:58:14.278	WT901BLE68(490AABDC0D29)	-0.052	-1.284	-0.193	4.150	4.028	-82.214	-97.12	-7.29	-37.41	-36.260	21.364	54.880	0.62216	-0.71121	0.24170	-0.22034	27.6	13111	100
2025-3-13 11:58:14.333	WT901BLE68(E947F43FF2E9)	0.067	0.983	-0.320	2.014	-59.326	109.131	107.33	-2.08	51.66	15.092	-62.622	-6.762	0.52750	0.72556	0.35040	0.26910	27.2	13111	100
2025-3-13 11:58:14.402	WT901BLE68(490AABDC0D29)	-0.094	-1.421	-0.109	-3.540	46.875	-145.569	-97.40	-18.15	-38.16	-36.260	21.364	54.880	0.62216	-0.71121	0.24170	-0.22034	27.6	13111	100
2025-3-13 11:58:14.459	WT901BLE68(E947F43FF2E9)	0.068	0.971	-0.200	2.747	0.122	41.199	104.64	-6.35	50.23	11.662	-63.798	-6.468	0.52750	0.72556	0.35040	0.26910	27.2	13111	100
2025-3-13 11:58:14.478	WT901BLE68(490AABDC0D29)	-0.253	-0.841	-0.307	27.100	-107.117	-72.510	-95.18	-28.84	-37.69	-36.260	21.364	54.880	0.62216	-0.71121	0.24170	-0.22034	27.6	13111	100
2025-3-13 11:58:14.535	WT901BLE68(E947F43FF2E9)	0.129	0.964	-0.209	-10.742	21.851	24.536	104.01	-9.71	50.12	11.662	-63.798	-6.468	0.52750	0.72556	0.35040	0.26910	27.2	13111	100
2025-3-13 11:58:14.627	WT901BLE68(490AABDC0D29)	0.070	-0.737	-0.178	67.688	-71.533	105.286	-97.59	-20.67	-23.46	-36.260	21.364	54.880	0.62253	-0.74335	0.04483	-0.24033	27.6	13111	100
2025-3-13 11:58:14.659	WT901BLE68(E947F43FF2E9)	0.228	0.986	-0.186	-16.663	9.644	36.560	102.54	-12.62	50.26	11.662	-63.798	-6.468	0.52716	0.72809	0.24454	0.36343	27.2	13111	100
2025-3-13 11:58:14.678	WT901BLE68(490AABDC0D29)	0.268	-1.209	-0.327	75.989	-63.782	212.280	-91.51	-1.05	-18.92	-36.260	21.364	54.880	0.62253	-0.74335	0.04483	-0.24033	27.6	13111	100
2025-3-13 11:58:14.734	WT901BLE68(E947F43FF2E9)	0.278	0.967	-0.146	-20.752	21.301	37.842	100.52	-16.11	50.28	11.662	-63.798	-6.468	0.52716	0.72809	0.24454	0.36343	27.2	13111	100
2025-3-13 11:58:14.827	WT901BLE68(490AABDC0D29)	1.235	-1.505	-0.017	43.030	-33.447	220.398	-86.74	20.76	-15.50	-6.958	33.810	56.448	0.62253	-0.74335	0.04483	-0.24033	27.6	13111	100
2025-3-13 11:58:14.859	WT901BLE68(E947F43FF2E9)	0.276	1.048	-0.096	-23.132	26.855	43.152	97.97	-19.98	51.25	2.156	-60.074	-12.348	0.52716	0.72809	0.24454	0.36343	27.2	13111	100
2025-3-13 11:58:14.877	WT901BLE68(490AABDC0D29)	1.000	-0.958	-0.492	-28.748	-46.143	-1.038	-82.71	29.98	-6.54	-6.958	33.810	56.448	0.62253	-0.74335	0.04483	-0.24033	27.6	13111	100
2025-3-13 11:58:14.934	WT901BLE68(E947F43FF2E9)	0.084	1.570	-0.236	-41.138	37.231	87.830	94.22	-25.55	52.45	2.156	-60.074	-12.348	0.52716	0.72809	0.24454	0.36343	27.2	13111	100
2025-3-13 11:58:15.27	WT901BLE68(490AABDC0D29)	-0.118	-1.336	0.042	-54.138	-20.630	-116.638	-85.28	20.15	1.02	-6.958	33.810	56.448	0.72043	-0.67340	0.11438	0.11963	27.6	13111	100
2025-3-13 11:58:15.60	WT901BLE68(E947F43FF2E9)	-0.174	1.094	-0.281	-77.759	127.686	97.717	84.55	-34.96	59.37	2.156	-60.074	-12.348	0.51324	0.62253	0.10605	0.58109	27.2	13111	100
2025-3-13 11:58:15.80	WT901BLE68(490AABDC0D29)	-0.070	-1.034	-0.032	-31.860	23.071	-50.415	-90.37	12.56	3.57	-6.958	33.810	56.448	0.72043	-0.67340	0.11438	0.11963	27.6	13111	100
2025-3-13 11:58:15.135	WT901BLE68(E947F43FF2E9)	-0.052	0.344	0.039	-18.188	86.182	-36.255	74.57	-37.25	68.02	2.156	-60.074	-12.348	0.51324	0.62253	0.10605	0.58109	27.2	13111	100
2025-3-13 11:58:15.228	WT901BLE68(490AABDC0D29)	-0.091	-0.987	-0.158	-19.043	7.996	-40.405	-93.96	7.28	2.36	-3.430	30.968	61.838	0.72043	-0.67340	0.11438	0.11963	27.6	13111	100
2025-3-13 11:58:15.258	WT901BLE68(E947F43FF2E9)	-0.008	0.757	-0.041	111.267	3.357	-133.423	82.85	-27.42	63.43	2.156	-60.074	-12.348	0.51324	0.62253	0.10605	0.58109	27.2	13111	100
2025-3-13 11:58:15.277	WT901BLE68(490AABDC0D29)	-0.010	-0.971	-0.161	-7.080	2.991	-38.025	-95.39	3.58	0.97	-3.430	30.968	61.838	0.72043	-0.67340	0.11438	0.11963	27.6	13111	100
2025-3-13 11:58:15.335	WT901BLE68(E947F43FF2E9)	0.226	1.379	0.063	145.264	27.893	-192.810	96.78	-9.84	62.48	13.524	-60.564	-13.720	0.51324	0.62253	0.10605	0.58109	27.2	13111	100
2025-3-13 11:58:15.411	WT901BLE68(490AABDC0D29)	0.025	-0.979	-0.164	-3.784	-1.099	-40.588	-96.05	-0.15	0.42	-3.430	30.968	61.838	0.66824	-0.74384	-0.00684	-0.00232	27.6	13111	100
2025-3-13 11:58:15.459	WT901BLE68(E947F43FF2E9)	0.820	1.519	0.357	94.482	-24.597	-160.156	109.04	7.85	67.68	13.524	-60.564	-13.720	0.51324	0.62253	0.10605	0.58109	27.2	13111	100
2025-3-13 11:58:15.477	WT901BLE68(490AABDC0D29)	0.165	-0.990	-0.165	-0.122	4.944	-44.495	-96.39	-4.03	-0.05	-3.430	30.968	61.838	0.66824	-0.74384	-0.00684	-0.00232	27.6	13111	100
2025-3-13 11:58:15.561	WT901BLE68(E947F43FF2E9)	-0.247	0.998	0.221	-21.729	22.461	47.668	111.37	11.55	72.62	13.524	-60.564	-13.720	0.50043	0.62875	0.53101	0.26859	27.2	13111	100
2025-3-13 11:58:15.628	WT901BLE68(490AABDC0D29)	-0.071	-1.250	-0.143	9.277	-6.836	-72.815	-96.45	-9.43	-0.03	-15.876	29.596	62.916	0.66824	-0.74384	-0.00684	-0.00232	27.6	13111	100
2025-3-13 11:58:15.659	WT901BLE68(E947F43FF2E9)	-0.118	0.938	-0.034	0.000	-41.382	100.708	105.62	3.74	65.96	13.524	-60.564	-13.720	0.50043	0.62875	0.53101	0.26859	27.2	13111	100
2025-3-13 11:58:15.677	WT901BLE68(490AABDC0D29)	-0.028	-1.479	-0.144	-21.484	35.522	-124.512	-96.88	-18.25	-0.97	-15.876	29.596	62.916	0.66824	-0.74384	-0.00684	-0.00232	27.6	13111	100
2025-3-13 11:58:15.761	WT901BLE68(E947F43FF2E9)	0.163	0.973	-0.041	-16.357	14.221	43.518	104.21	-3.28	64.12	22.442	-63.896	-2.646	0.50043	0.62875	0.53101	0.26859	27.2	13111	100
2025-3-13 11:58:15.827	WT901BLE68(490AABDC0D29)	-0.006	-0.638	-0.566	-4.944	-28.259	-100.281	-94.10	-31.23	-7.83	-15.876	29.596	62.916	0.63858	-0.71588	-0.14032	-0.24478	27.6	13111	100
2025-3-13 11:58:15.858	WT901BLE68(E947F43FF2E9)	0.116	0.969	-0.240	-0.977	-6.653	37.292	104.18	-7.62	62.27	22.442	-63.896	-2.646	0.50043	0.62875	0.53101	0.26859	27.2	13111	100
2025-3-13 11:58:15.877	WT901BLE68(490AABDC0D29)	0.077	-0.676	-0.212	18.860	-59.875	41.565	-100.21	-29.84	2.36	-15.876	29.596	62.916	0.63858	-0.71588	-0.14032	-0.24478	27.6	13111	100
2025-3-13 11:58:15.961	WT901BLE68(E947F43FF2E9)	0.175	0.998	-0.206	-8.179	10.864	34.241	103.48	-10.57	61.74	22.442	-63.896	-2.646	0.49176	0.70053	0.35117	0.37949	27.2	13111	100
2025-3-13 11:58:16.27	WT901BLE68(490AABDC0D29)	0.156	-0.819	-0.260	63.293	-89.478	162.842	-97.93	-15.97	5.87	-22.932	26.068	63.504	0.63858	-0.71588	-0.14032	-0.24478	27.6	13111	100
2025-3-13 11:58:16.58	WT901BLE68(E947F43FF2E9)	0.275	1.021	-0.125	-11.353	32.654	41.626	102.11	-14.52	62.68	22.442	-63.896	-2.646	0.49176	0.70053	0.35117	0.37949	27.2	13111	100
2025-3-13 11:58:16.76	WT901BLE68(490AABDC0D29)	1.201	-1.157	-0.202	58.228	-57.983	222.046	-92.52	4.78	9.62	-22.932	26.068	63.504	0.63858	-0.71588	-0.14032	-0.24478	27.6	13111	100
2025-3-13 11:58:16.159	WT901BLE68(E947F43FF2E9)	0.317	0.996	-0.144	-16.479	29.358	48.889	100.01	-19.30	64.19	9.604	-63.798	-4.998	0.49176	0.70053	0.35117	0.37949	27.2	13111	100
2025-3-13 11:58:16.224	WT901BLE68(490AABDC0D29)	-2.041	-1.516	-0.440	52.429	33.875	180.481	-87.38	25.78	9.42	-22.932	26.068	63.504	0.68912	-0.68161	0.11508	0.21716	27.6	13111	100
2025-3-13 11:58:16.278	WT901BLE68(490AABDC0D29)	-0.026	-1.152	1.198	-33.142	-46.936	-12.695	-88.24	24.10	10.93	-22.932	26.068	63.504	0.68912	-0.68161	0.11508	0.21716	27.6	13111	100
2025-3-13 11:58:16.285	WT901BLE68(E947F43FF2E9)	0.023	1.062	-0.059	-30.212	19.836	63.782	97.04	-24.71	65.09	9.604	-63.798	-4.998	0.49176	0.70053	0.35117	0.37949	27.2	13111	100
2025-3-13 11:58:16.359	WT901BLE68(E947F43FF2E9)	0.763	1.545	-0.253	-50.598	54.443	83.252	91.27	-31.42	67.41	9.604	-63.798	-4.998	0.45242	0.67755	0.22440	0.53455	27.2	13111	100
2025-3-13 11:58:16.400	WT901BLE68(490AABDC0D29)	-0.186	-0.922	-0.054	-15.198	2.197	-51.514	-91.03	14.69	14.71	7.840	30.478	57.820	0.68912	-0.68161	0.11508	0.21716	27.6	13111	100
2025-3-13 11:58:16.486	WT901BLE68(E947F43FF2E9)	-0.369	1.037	0.008	-84.473	-41.931	126.465	81.89	-40.89	69.54	9.604	-63.798	-4.998	0.45242	0.67755	0.22440	0.53455	27.2	13111	100
2025-3-13 11:58:16.528	WT901BLE68(490AABDC0D29)	-0.098	-1.001	-0.158	-25.513	-0.793	-57.312	-93.86	8.96	13.07	7.840	30.478	57.820	0.68912	-0.68161	0.11508	0.21716	27.6	13111	100
2025-3-13 11:58:16.559	WT901BLE68(E947F43FF2E9)	-0.176	0.293	-0.118	1.465	52.490	-64.697	78.45	-40.72	68.60	-6.370	-52.822	-19.404	0.45242	0.67755	0.22440	0.53455	27.2	13111	100
2025-3-13 11:58:16.625	WT901BLE68(490AABDC0D29)	-0.048	-0.988	-0.147	-7.813	6.226	-39.978	-95.30	4.31	11.83	7.840	30.478	57.820	0.66724	-0.73804	-0.05923	0.08047	27.6	13111	100
2025-3-13 11:58:16.685	WT901BLE68(E947F43FF2E9)	0.460	1.001	-0.097	144.348	59.937	-252.563	89.71	-23.02	64.23	-6.370	-52.822	-19.404	0.45242	0.67755	0.22440	0.53455	27.2	13111	100
2025-3-13 11:58:16.725	WT901BLE68(490AABDC0D29)	0.007	-0.977	-0.140	0.427	3.540	-43.823	-95.61	0.55	10.79	7.840	30.478	57.820	0.66724	-0.73804	-0.05923	0.08047	27.6	13111	100
2025-3-13 11:58:16.759	WT901BLE68(E947F43FF2E9)	-0.229	2.288	0.232	196.411	79.224	-272.522	106.46	4.55	72.93	-6.370	-52.822	-19.404	0.49985	0.62961	0.49481	0.32986	27.2	13111	100
2025-3-13 11:58:16.826	WT901BLE68(490AABDC0D29)	-0.001	-1.024	-0.131	0.305	2.197	-69.031	-95.71	-4.31	9.80	-8.428	32.144	60.662	0.66724	-0.73804	-0.05923	0.08047	27.6	13111	100
2025-3-13 11:58:16.886	WT901BLE68(E947F43FF2E9)	0.700	1.167	0.448	-80.688	-72.083	135.010	111.81	11.30	80.00	30.086	-63.896	1.078	0.49985	0.62961	0.49481	0.32986	27.2	13111	100
2025-3-13 11:58:16.902	WT901BLE68(490AABDC0D29)	-0.313	-1.582	-0.252	-20.203	23.315	-126.770	-96.61	-12.91	9.07	-8.428	32.144	60.662	0.66724	-0.73804	-0.05923	0.08047	27.6	13111	100
2025-3-13 11:58:16.958	WT901BLE68(E947F43FF2E9)	0.046	1.040	-0.074	-25.818	-18.616	107.910	105.83	0.69	73.10	30.086	-63.896	1.078	0.49985	0.62961	0.49481	0.32986	27.2	13111	100
2025-3-13 11:58:17.25	WT901BLE68(490AABDC0D29)	-0.212	-1.392	-0.140	9.094	116.028	-165.833	-97.48	-28.15	3.72	-8.428	32.144	60.662	0.64392	-0.71237	-0.19104	-0.20322	27.6	13111	100
2025-3-13 11:58:17.83	WT901BLE68(E947F43FF2E9)	0.092	1.007	-0.143	-12.634	18.372	36.987	102.73	-5.89	73.05	30.086	-63.896	1.078	0.49985	0.62961	0.49481	0.32986	27.2	13111	100
2025-3-13 11:58:17.128	WT901BLE68(490AABDC0D29)	0.020	-0.570	-0.115	2.930	-90.149	66.101	-98.36	-32.73	2.70	-8.428	32.144	60.662	0.64392	-0.71237	-0.19104	-0.20322	27.6	13111	100
2025-3-13 11:58:17.159	WT901BLE68(E947F43FF2E9)	0.141	0.988	-0.170	-17.456	21.851	18.555	100.81	-8.89	74.33	30.086	-63.896	1.078	0.46960	0.64029	0.42270	0.43671	27.2	13111	100
2025-3-13 11:58:17.225	WT901BLE68(490AABDC0D29)	0.157	-0.890	0.114	65.918	-32.837	221.802	-93.77	-15.85	0.77	-17.150	32.046	58.800	0.64392	-0.71237	-0.19104	-0.20322	27.6	13111	100
2025-3-13 11:58:17.283	WT901BLE68(E947F43FF2E9)	0.193	0.997	-0.114	-20.508	11.475	28.870	98.61	-11.28	75.05	30.086	-63.896	1.078	0.46960	0.64029	0.42270	0.43671	27.2	13111	100
2025-3-13 11:58:17.325	WT901BLE68(490AABDC0D29)	1.814	-1.564	-0.099	82.458	-6.958	291.382	-86.13	10.99	3.00	-17.150	32.046	58.800	0.64392	-0.71237	-0.19104	-0.20322	27.6	13111	100
2025-3-13 11:58:17.359	WT901BLE68(E947F43FF2E9)	0.280	1.025	-0.081	-25.818	7.385	42.908	96.31	-14.71	75.08	16.268	-65.660	-5.096	0.46960	0.64029	0.42270	0.43671	27.2	13111	100
2025-3-13 11:58:17.425	WT901BLE68(490AABDC0D29)	1.736	-0.979	-0.794	-17.883	-91.614	64.087	-78.61	30.87	10.76	-17.150	32.046	58.800	0.72464	-0.64282	0.08331	0.23370	27.6	13111	100
2025-3-13 11:58:17.484	WT901BLE68(E947F43FF2E9)	0.212	1.209	-0.089	-47.302	26.001	60.181	92.57	-19.34	75.26	16.268	-65.660	-5.096	0.46960	0.64029	0.42270	0.43671	27.2	13111	100
2025-3-13 11:58:17.525	WT901BLE68(490AABDC0D29)	-0.128	-1.343	-0.238	-61.646	-127.197	-102.234	-80.81	20.70	20.03	-17.150	32.046	58.800	0.72464	-0.64282	0.08331	0.23370	27.6	13111	100
2025-3-13 11:58:17.559	WT901BLE68(E947F43FF2E9)	0.654	1.495	-0.178	-77.393	44.556	113.037	85.28	-26.95	78.30	16.268	-65.660	-5.096	0.45145	0.61411	0.26620	0.58997	27.2	13111	100
2025-3-13 11:58:17.626	WT901BLE68(490AABDC0D29)	-0.150	-1.005	-0.105	-45.471	-20.508	-48.950	-87.10	12.05	21.54	10.780	37.632	49.784	0.72464	-0.64282	0.08331	0.23370	27.6	13111	100
2025-3-13 11:58:17.684	WT901BLE68(E947F43FF2E9)	-0.016	0.388	0.030	-51.392	100.952	80.811	72.24	-33.78	88.47	16.268	-65.660	-5.096	0.45145	0.61411	0.26620	0.58997	27.2	13111	100
2025-3-13 11:58:17.727	WT901BLE68(490AABDC0D29)	-0.118	-0.993	-0.107	-34.790	3.723	-44.250	-90.94	7.41	20.29	10.780	37.632	49.784	0.72464	-0.64282	0.08331	0.23370	27.6	13111	100
2025-3-13 11:58:17.819	WT901BLE68(E947F43FF2E9)	-0.073	0.490	-0.167	65.430	-19.104	-65.613	73.86	-32.05	86.60	3.822	-59.976	-20.580	0.45145	0.61411	0.26620	0.58997	27.2	13111	100
2025-3-13 11:58:17.827	WT901BLE68(490AABDC0D29)	-0.039	-0.983	-0.121	-16.418	12.756	-32.349	-93.49	3.87	18.56	10.780	37.632	49.784	0.66913	-0.72626	-0.10138	0.12012	27.6	13111	100
2025-3-13 11:58:17.901	WT901BLE68(490AABDC0D29)	-0.011	-0.980	-0.152	-7.751	2.869	-36.987	-94.87	0.54	17.53	10.780	37.632	49.784	0.66913	-0.72626	-0.10138	0.12012	27.6	13111	100
2025-3-13 11:58:17.922	WT901BLE68(E947F43FF2E9)	0.009	1.015	0.084	145.020	-7.385	-146.179	88.61	-20.42	79.71	3.822	-59.976	-20.580	0.45145	0.61411	0.26620	0.58997	27.2	13111	100
2025-3-13 11:58:17.960	WT901BLE68(E947F43FF2E9)	0.825	1.518	0.106	160.889	45.593	-193.542	103.87	-2.59	82.08	3.822	-59.976	-20.580	0.42593	0.55661	0.61456	0.36185	27.2	13111	100
2025-3-13 11:58:18.25	WT901BLE68(490AABDC0D29)	0.066	-0.993	-0.170	-6.653	3.174	-45.593	-95.72	-3.21	16.48	-1.078	39.494	54.782	0.66913	-0.72626	-0.10138	0.12012	27.6	13111	100
2025-3-13 11:58:18.84	WT901BLE68(E947F43FF2E9)	-0.509	1.305	0.531	60.059	10.132	-86.121	114.48	9.73	94.41	3.822	-59.976	-20.580	0.42593	0.55661	0.61456	0.36185	27.2	13111	100
2025-3-13 11:58:18.127	WT901BLE68(490AABDC0D29)	0.025	-1.018	-0.167	-10.925	1.465	-64.758	-96.73	-8.39	15.73	-1.078	39.494	54.782	0.66913	-0.72626	-0.10138	0.12012	27.6	13111	100
2025-3-13 11:58:18.160	WT901BLE68(E947F43FF2E9)	0.363	1.408	0.499	-71.228	126.038	36.316	109.86	4.87	93.08	35.476	-69.972	23.030	0.42593	0.55661	0.61456	0.36185	27.2	13111	100
2025-3-13 11:58:18.227	WT901BLE68(490AABDC0D29)	-0.112	-1.515	-0.151	-23.499	40.710	-103.455	-98.16	-16.48	13.56	-1.078	39.494	54.782	0.64841	-0.72992	-0.20093	-0.07959	27.6	13111	100
2025-3-13 11:58:18.284	WT901BLE68(E947F43FF2E9)	0.052	1.217	-0.170	-40.833	-28.076	62.927	106.11	-3.41	90.82	35.476	-69.972	23.030	0.42593	0.55661	0.61456	0.36185	27.2	13111	100
2025-3-13 11:58:18.327	WT901BLE68(490AABDC0D29)	-0.093	-1.278	-0.125	15.686	106.201	-149.048	-97.75	-30.26	7.54	-1.078	39.494	54.782	0.64841	-0.72992	-0.20093	-0.07959	27.6	13111	100
2025-3-13 11:58:18.360	WT901BLE68(E947F43FF2E9)	0.073	0.950	-0.158	-9.277	1.221	42.236	103.64	-7.73	91.14	35.476	-69.972	23.030	0.39246	0.57947	0.52902	0.47980	27.2	13111	100
2025-3-13 11:58:18.425	WT901BLE68(490AABDC0D29)	0.118	-0.551	-0.207	33.997	-78.064	65.674	-97.59	-32.55	7.75	-25.186	35.868	55.174	0.64841	-0.72992	-0.20093	-0.07959	27.6	13111	100
2025-3-13 11:58:18.483	WT901BLE68(E947F43FF2E9)	0.144	0.975	-0.185	-17.822	17.395	21.484	101.74	-10.44	92.66	35.476	-69.972	23.030	0.39246	0.57947	0.52902	0.47980	27.2	13111	100
2025-3-13 11:58:18.527	WT901BLE68(490AABDC0D29)	0.143	-0.937	-0.063	58.533	-43.884	185.120	-94.56	-18.07	9.49	-25.186	35.868	55.174	0.64841	-0.72992	-0.20093	-0.07959	27.6	13111	100
2025-3-13 11:58:18.560	WT901BLE68(E947F43FF2E9)	0.218	0.983	-0.134	-25.330	13.977	32.166	99.08	-13.06	94.03	19.796	-75.460	16.170	0.39246	0.57947	0.52902	0.47980	27.2	13111	100
2025-3-13 11:58:18.626	WT901BLE68(490AABDC0D29)	0.889	-1.275	-0.039	64.026	-44.922	216.370	-89.01	2.90	12.13	-25.186	35.868	55.174	0.71207	-0.68442	-0.01254	0.15579	27.6	13111	100
2025-3-13 11:58:18.685	WT901BLE68(E947F43FF2E9)	0.239	0.985	-0.087	-28.992	14.832	31.433	96.02	-16.07	95.30	19.796	-75.460	16.170	0.39246	0.57947	0.52902	0.47980	27.2	13111	100
2025-3-13 11:58:18.727	WT901BLE68(490AABDC0D29)	-1.075	-1.419	-0.409	42.725	-157.715	167.419	-81.03	21.84	22.15	-25.186	35.868	55.174	0.71207	-0.68442	-0.01254	0.15579	27.6	13111	100
2025-3-13 11:58:18.759	WT901BLE68(E947F43FF2E9)	0.209	1.014	-0.059	-38.269	10.437	42.847	92.44	-19.45	96.34	19.796	-75.460	16.170	0.36313	0.56152	0.44846	0.59296	27.2	13111	100
2025-3-13 11:58:18.827	WT901BLE68(490AABDC0D29)	-0.071	-1.965	1.221	-49.072	19.775	-46.631	-79.45	19.04	32.87	21.070	32.928	38.514	0.71207	-0.68442	-0.01254	0.15579	27.6	13111	100
2025-3-13 11:58:18.886	WT901BLE68(E947F43FF2E9)	0.324	1.675	-0.235	-82.031	68.298	102.783	86.02	-25.83	99.61	19.796	-75.460	16.170	0.36313	0.56152	0.44846	0.59296	27.2	13111	100
2025-3-13 11:58:18.903	WT901BLE68(490AABDC0D29)	-0.092	-0.950	-0.093	-53.894	6.897	-62.805	-87.92	8.75	34.51	21.070	32.928	38.514	0.71207	-0.68442	-0.01254	0.15579	27.6	13111	100
2025-3-13 11:58:18.983	WT901BLE68(E947F43FF2E9)	-0.146	0.517	-0.057	-49.988	63.232	70.618	72.86	-33.46	108.12	1.470	-71.148	-5.292	0.36313	0.56152	0.44846	0.59296	27.2	13111	100
2025-3-13 11:58:19.26	WT901BLE68(490AABDC0D29)	-0.107	-1.043	-0.101	-28.870	3.479	-44.373	-92.06	4.21	32.72	21.070	32.928	38.514	0.65631	-0.70190	-0.18442	0.20609	27.6	13111	100
2025-3-13 11:58:19.85	WT901BLE68(E947F43FF2E9)	-0.176	0.544	-0.182	93.628	23.071	-94.116	77.83	-33.02	101.06	1.470	-71.148	-5.292	0.36313	0.56152	0.44846	0.59296	27.2	13111	100
2025-3-13 11:58:19.127	WT901BLE68(490AABDC0D29)	-0.018	-0.979	-0.147	-13.062	7.019	-38.025	-94.06	0.66	30.65	21.070	32.928	38.514	0.65631	-0.70190	-0.18442	0.20609	27.6	13111	100
2025-3-13 11:58:19.184	WT901BLE68(E947F43FF2E9)	0.172	1.232	0.005	175.476	20.874	-192.017	92.63	-18.18	97.14	1.470	-71.148	-5.292	0.37057	0.54416	0.51971	0.54437	27.2	13111	100
2025-3-13 11:58:19.228	WT901BLE68(490AABDC0D29)	0.056	-0.988	-0.151	-8.545	2.869	-42.297	-95.13	-2.96	29.37	6.272	38.906	47.236	0.65631	-0.70190	-0.18442	0.20609	27.6	13111	100
2025-3-13 11:58:19.285	WT901BLE68(E947F43FF2E9)	0.133	1.863	0.468	156.799	103.821	-219.055	109.64	2.30	106.52	1.470	-71.148	-5.292	0.37057	0.54416	0.51971	0.54437	27.2	13111	100
2025-3-13 11:58:19.328	WT901BLE68(490AABDC0D29)	-0.014	-1.008	-0.153	-3.601	-3.052	-59.204	-95.84	-7.54	28.49	6.272	38.906	47.236	0.65631	-0.70190	-0.18442	0.20609	27.6	13111	100
2025-3-13 11:58:19.383	WT901BLE68(E947F43FF2E9)	0.547	1.270	-0.233	-40.100	-68.176	108.582	114.31	8.64	115.62	39.592	-64.484	24.010	0.37057	0.54416	0.51971	0.54437	27.2	13111	100
2025-3-13 11:58:19.426	WT901BLE68(490AABDC0D29)	0.065	-1.452	-0.258	-4.211	-20.386	-95.337	-96.52	-14.35	29.16	6.272	38.906	47.236	0.66278	-0.69189	-0.28195	0.04861	27.6	13111	100
2025-3-13 11:58:19.486	WT901BLE68(E947F43FF2E9)	-0.056	1.345	-0.350	-28.259	-70.923	89.050	108.91	-0.20	108.30	39.592	-64.484	24.010	0.37057	0.54416	0.51971	0.54437	27.2	13111	100
2025-3-13 11:58:19.528	WT901BLE68(490AABDC0D29)	-0.514	-1.403	-0.130	-5.005	107.483	-155.518	-97.09	-26.66	23.91	6.272	38.906	47.236	0.66278	-0.69189	-0.28195	0.04861	27.6	13111	100
2025-3-13 11:58:19.582	WT901BLE68(E947F43FF2E9)	0.075	0.911	-0.133	-13.062	10.620	42.786	105.18	-5.41	106.77	39.592	-64.484	24.010	0.32706	0.50079	0.61234	0.51688	27.2	13111	100
2025-3-13 11:58:19.627	WT901BLE68(490AABDC0D29)	-0.103	-0.588	-0.155	8.179	-63.293	-17.395	-94.97	-34.02	19.09	-22.736	39.494	49.294	0.66278	-0.69189	-0.28195	0.04861	27.6	13111	100
2025-3-13 11:58:19.711	WT901BLE68(E947F43FF2E9)	0.105	0.986	-0.179	-18.921	25.635	18.921	103.07	-8.74	107.33	39.592	-64.484	24.010	0.32706	0.50079	0.61234	0.51688	27.2	13111	100
2025-3-13 11:58:19.728	WT901BLE68(490AABDC0D29)	0.140	-0.750	-0.086	43.823	-54.321	129.089	-95.38	-23.49	23.95	-22.736	39.494	49.294	0.66278	-0.69189	-0.28195	0.04861	27.6	13111	100
2025-3-13 11:58:19.783	WT901BLE68(E947F43FF2E9)	0.168	0.976	-0.181	-20.691	13.916	26.184	100.85	-10.98	108.07	25.774	-73.598	15.974	0.32706	0.50079	0.61234	0.51688	27.2	13111	100
2025-3-13 11:58:19.825	WT901BLE68(490AABDC0D29)	0.275	-1.191	-0.089	59.753	-31.311	212.341	-90.12	-3.32	24.41	-22.736	39.494	49.294	0.69470	-0.68536	-0.12225	0.18057	27.6	13111	100
2025-3-13 11:58:19.911	WT901BLE68(E947F43FF2E9)	0.240	0.983	-0.117	-20.203	8.545	38.635	98.58	-14.09	107.87	25.774	-73.598	15.974	0.32706	0.50079	0.61234	0.51688	27.2	13111	100
2025-3-13 11:58:19.928	WT901BLE68(490AABDC0D29)	0.315	-1.533	-0.136	56.152	-56.458	235.840	-84.11	18.88	28.31	-22.736	39.494	49.294	0.69470	-0.68536	-0.12225	0.18057	27.6	13111	100
2025-3-13 11:58:19.983	WT901BLE68(E947F43FF2E9)	0.268	1.038	-0.110	-30.945	9.033	47.852	96.25	-17.92	107.37	25.774	-73.598	15.974	0.29434	0.52200	0.52148	0.60730	27.2	13111	100
2025-3-13 11:58:20.25	WT901BLE68(490AABDC0D29)	-0.165	-1.054	-0.096	-49.744	-32.166	-94.238	-81.97	24.79	34.95	40.278	36.358	33.712	0.69470	-0.68536	-0.12225	0.18057	27.6	13111	100
2025-3-13 11:58:20.113	WT901BLE68(E947F43FF2E9)	0.043	1.374	-0.084	-52.795	31.067	80.505	91.86	-23.90	107.93	25.774	-73.598	15.974	0.29434	0.52200	0.52148	0.60730	27.2	13111	100
2025-3-13 11:58:20.125	WT901BLE68(490AABDC0D29)	-0.174	-1.209	-0.578	-75.928	-73.120	-63.721	-86.40	16.14	36.36	40.278	36.358	33.712	0.69470	-0.68536	-0.12225	0.18057	27.6	13111	100
2025-3-13 11:58:20.186	WT901BLE68(E947F43FF2E9)	-0.394	1.258	-0.438	-96.130	106.689	102.234	81.40	-32.77	113.89	4.410	-74.578	0.784	0.29434	0.52200	0.52148	0.60730	27.2	13111	100
2025-3-13 11:58:20.228	WT901BLE68(490AABDC0D29)	-0.082	-0.981	-0.055	-40.344	6.226	-47.058	-90.30	10.59	38.25	40.278	36.358	33.712	0.63818	-0.69620	-0.18820	0.26920	27.6	13111	100
2025-3-13 11:58:20.312	WT901BLE68(E947F43FF2E9)	-0.079	0.419	-0.042	-30.457	30.701	-24.231	72.66	-35.97	117.86	4.410	-74.578	0.784	0.29434	0.52200	0.52148	0.60730	27.2	13111	100
2025-3-13 11:58:20.327	WT901BLE68(490AABDC0D29)	-0.091	-0.993	-0.132	-18.555	18.921	-35.706	-93.46	5.86	36.99	40.278	36.358	33.712	0.63818	-0.69620	-0.18820	0.26920	27.6	13111	100
2025-3-13 11:58:20.384	WT901BLE68(E947F43FF2E9)	-0.040	0.770	-0.059	107.666	-1.221	-141.968	83.64	-27.60	107.56	4.410	-74.578	0.784	0.31393	0.52472	0.45020	0.65067	27.2	13111	100
2025-3-13 11:58:20.428	WT901BLE68(490AABDC0D29)	-0.009	-0.968	-0.173	-6.775	10.071	-38.330	-94.89	2.32	35.80	23.422	48.118	41.258	0.63818	-0.69620	-0.18820	0.26920	27.6	13111	100
2025-3-13 11:58:20.513	WT901BLE68(E947F43FF2E9)	0.841	1.351	-0.004	152.588	-15.625	-210.815	98.18	-8.37	105.21	4.410	-74.578	0.784	0.31393	0.52472	0.45020	0.65067	27.2	13111	100
2025-3-13 11:58:20.527	WT901BLE68(490AABDC0D29)	0.139	-0.981	-0.170	-6.531	3.479	-51.270	-95.72	-1.89	35.14	23.422	48.118	41.258	0.63818	-0.69620	-0.18820	0.26920	27.6	13111	100
2025-3-13 11:58:20.583	WT901BLE68(E947F43FF2E9)	-9.908	1.701	0.491	104.187	21.667	-167.114	112.02	10.76	111.34	46.942	-59.094	27.048	0.31393	0.52472	0.45020	0.65067	27.2	13111	100
2025-3-13 11:58:20.651	WT901BLE68(490AABDC0D29)	-0.010	-1.027	-0.115	-7.751	-9.888	-72.876	-96.51	-7.46	35.32	23.422	48.118	41.258	0.64804	-0.68896	-0.29639	0.13187	27.6	13111	100
2025-3-13 11:58:20.714	WT901BLE68(E947F43FF2E9)	0.745	7.888	-1.599	-32.104	-119.202	45.898	109.08	7.58	107.81	46.942	-59.094	27.048	0.31393	0.52472	0.45020	0.65067	27.2	13111	100
2025-3-13 11:58:20.728	WT901BLE68(490AABDC0D29)	-0.124	-1.511	-0.185	-37.842	33.997	-123.535	-98.49	-16.32	36.05	23.422	48.118	41.258	0.64804	-0.68896	-0.29639	0.13187	27.6	13111	100
2025-3-13 11:58:20.783	WT901BLE68(E947F43FF2E9)	0.004	1.600	0.142	-71.655	-11.414	86.914	105.47	-1.55	99.53	46.942	-59.094	27.048	0.38150	0.51535	0.59628	0.48291	27.2	13111	100
2025-3-13 11:58:20.853	WT901BLE68(490AABDC0D29)	-0.336	-1.033	-0.155	19.226	173.645	-114.807	-97.29	-29.63	25.22	-13.132	48.216	47.236	0.64804	-0.68896	-0.29639	0.13187	27.6	13111	100
2025-3-13 11:58:20.928	WT901BLE68(490AABDC0D29)	0.070	-0.524	-0.163	7.996	-77.881	58.044	-96.04	-31.33	20.69	-13.132	48.216	47.236	0.64804	-0.68896	-0.29639	0.13187	27.6	13111	100
2025-3-13 11:58:20.934	WT901BLE68(E947F43FF2E9)	0.038	0.993	-0.159	-16.541	13.977	39.795	103.06	-6.28	101.00	46.942	-59.094	27.048	0.38150	0.51535	0.59628	0.48291	27.2	13111	100
2025-3-13 11:58:20.984	WT901BLE68(E947F43FF2E9)	0.132	0.968	-0.194	-12.695	11.902	18.311	101.13	-8.28	102.25	35.966	-66.444	20.384	0.38150	0.51535	0.59628	0.48291	27.2	13111	100
2025-3-13 11:58:21.53	WT901BLE68(490AABDC0D29)	0.061	-0.906	-0.029	44.983	-19.348	189.575	-94.32	-15.82	21.39	-13.132	48.216	47.236	0.68842	-0.70187	-0.15524	0.09604	27.6	13111	100
2025-3-13 11:58:21.115	WT901BLE68(E947F43FF2E9)	0.205	0.969	-0.146	-19.836	5.798	36.438	99.56	-10.81	102.07	35.966	-66.444	20.384	0.38150	0.51535	0.59628	0.48291	27.2	13111	100
2025-3-13 11:58:21.128	WT901BLE68(490AABDC0D29)	1.046	-1.362	0.042	51.636	4.395	255.737	-89.56	7.77	20.25	-13.132	48.216	47.236	0.68842	-0.70187	-0.15524	0.09604	27.6	13111	100
2025-3-13 11:58:21.183	WT901BLE68(E947F43FF2E9)	0.232	1.003	-0.101	-23.132	6.836	41.321	97.57	-14.35	102.18	35.966	-66.444	20.384	0.33521	0.53427	0.52353	0.57269	27.2	13111	100
2025-3-13 11:58:21.253	WT901BLE68(490AABDC0D29)	0.716	-1.380	-0.441	37.170	-35.339	152.161	-83.66	29.08	23.46	26.558	21.756	39.494	0.68842	-0.70187	-0.15524	0.09604	27.6	13111	100
2025-3-13 11:58:21.317	WT901BLE68(E947F43FF2E9)	0.235	1.333	-0.079	-38.757	7.751	69.275	94.55	-18.84	102.37	35.966	-66.444	20.384	0.33521	0.53427	0.52353	0.57269	27.2	13111	100
2025-3-13 11:58:21.328	WT901BLE68(490AABDC0D29)	-0.167	-1.051	0.188	-40.771	-64.392	-81.970	-85.48	22.74	25.64	26.558	21.756	39.494	0.68842	-0.70187	-0.15524	0.09604	27.6	13111	100
2025-3-13 11:58:21.385	WT901BLE68(E947F43FF2E9)	0.314	1.412	-0.338	-72.449	48.401	119.629	88.29	-26.91	104.75	15.288	-70.756	9.212	0.33521	0.53427	0.52353	0.57269	27.2	13111	100
2025-3-13 11:58:21.451	WT901BLE68(490AABDC0D29)	-0.238	-0.933	-0.030	-19.714	26.672	-39.001	-89.64	15.10	27.83	26.558	21.756	39.494	0.65680	-0.70941	-0.08481	0.24094	27.6	13111	100
2025-3-13 11:58:21.518	WT901BLE68(E947F43FF2E9)	-0.035	0.405	-0.304	-40.161	14.343	58.533	75.54	-33.90	115.15	15.288	-70.756	9.212	0.33521	0.53427	0.52353	0.57269	27.2	13111	100
2025-3-13 11:58:21.527	WT901BLE68(490AABDC0D29)	-0.117	-0.973	-0.144	-21.667	10.803	-46.875	-92.86	10.50	26.08	26.558	21.756	39.494	0.65680	-0.70941	-0.08481	0.24094	27.6	13111	100
2025-3-13 11:58:21.585	WT901BLE68(E947F43FF2E9)	0.030	0.620	-0.239	57.739	-52.429	-105.530	77.59	-29.60	109.89	15.288	-70.756	9.212	0.33105	0.52155	0.41479	0.66800	27.2	13111	100
2025-3-13 11:58:21.651	WT901BLE68(490AABDC0D29)	-0.055	-0.970	-0.164	-5.676	7.568	-34.973	-94.30	6.32	24.88	15.386	29.792	43.316	0.65680	-0.70941	-0.08481	0.24094	27.6	13111	100
2025-3-13 11:58:21.719	WT901BLE68(E947F43FF2E9)	0.252	1.149	0.017	129.822	-7.629	-174.316	91.18	-15.18	102.32	15.288	-70.756	9.212	0.33105	0.52155	0.41479	0.66800	27.2	13111	100
2025-3-13 11:58:21.725	WT901BLE68(490AABDC0D29)	-0.051	-0.984	-0.162	-3.357	3.296	-40.955	-94.98	2.70	24.05	15.386	29.792	43.316	0.65680	-0.70941	-0.08481	0.24094	27.6	13111	100
2025-3-13 11:58:21.785	WT901BLE68(E947F43FF2E9)	1.140	1.595	0.145	135.803	5.493	-193.298	104.83	3.92	103.52	31.164	-58.604	18.718	0.33105	0.52155	0.41479	0.66800	27.2	13111	100
2025-3-13 11:58:21.851	WT901BLE68(490AABDC0D29)	0.077	-0.982	-0.172	-1.099	5.493	-47.424	-95.34	-1.25	23.28	15.386	29.792	43.316	0.66278	-0.72116	-0.16711	0.11221	27.6	13111	100
2025-3-13 11:58:21.918	WT901BLE68(E947F43FF2E9)	-0.170	1.036	0.538	-22.095	-31.189	55.115	109.81	12.87	104.74	31.164	-58.604	18.718	0.33105	0.52155	0.41479	0.66800	27.2	13111	100
2025-3-13 11:58:21.927	WT901BLE68(490AABDC0D29)	-0.058	-1.160	-0.194	-1.465	-4.517	-79.712	-95.88	-6.83	22.97	15.386	29.792	43.316	0.66278	-0.72116	-0.16711	0.11221	27.6	13111	100
2025-3-13 11:58:21.985	WT901BLE68(E947F43FF2E9)	0.205	0.798	-0.255	38.391	-68.237	120.667	103.94	4.42	96.27	31.164	-58.604	18.718	0.42218	0.53793	0.57501	0.44904	27.2	13111	100
2025-3-13 11:58:22.51	WT901BLE68(490AABDC0D29)	-0.256	-1.441	-0.196	-25.757	39.429	-116.272	-96.71	-15.57	21.79	-4.802	35.182	45.276	0.66278	-0.72116	-0.16711	0.11221	27.6	13111	100
2025-3-13 11:58:22.119	WT901BLE68(E947F43FF2E9)	0.065	1.026	-0.221	-20.325	23.315	35.645	101.53	-3.77	94.35	31.164	-58.604	18.718	0.42218	0.53793	0.57501	0.44904	27.2	13111	100
2025-3-13 11:58:22.127	WT901BLE68(490AABDC0D29)	-0.145	-0.716	-0.312	-0.122	70.740	-106.262	-94.81	-27.96	12.31	-4.802	35.182	45.276	0.66278	-0.72116	-0.16711	0.11221	27.6	13111	100
2025-3-13 11:58:22.185	WT901BLE68(E947F43FF2E9)	0.129	0.989	-0.121	-6.775	10.742	33.752	100.32	-7.70	95.39	24.206	-60.466	16.660	0.42218	0.53793	0.57501	0.44904	27.2	13111	100
2025-3-13 11:58:22.251	WT901BLE68(490AABDC0D29)	0.100	-0.655	-0.081	12.085	-36.682	80.933	-95.80	-27.03	10.91	-4.802	35.182	45.276	0.67303	-0.70947	-0.19232	-0.08124	27.6	13111	100
2025-3-13 11:58:22.321	WT901BLE68(E947F43FF2E9)	0.208	1.001	-0.133	-13.184	5.920	31.799	99.08	-10.75	96.25	24.206	-60.466	16.660	0.42218	0.53793	0.57501	0.44904	27.2	13111	100
2025-3-13 11:58:22.327	WT901BLE68(490AABDC0D29)	0.092	-1.020	0.042	36.987	-16.113	192.688	-92.98	-11.26	8.92	-4.802	35.182	45.276	0.67303	-0.70947	-0.19232	-0.08124	27.6	13111	100
2025-3-13 11:58:22.385	WT901BLE68(E947F43FF2E9)	0.268	0.975	-0.111	-8.179	7.507	37.109	97.72	-14.00	96.89	24.206	-60.466	16.660	0.35855	0.55783	0.50046	0.55649	27.2	13111	100
2025-3-13 11:58:22.479	WT901BLE68(490AABDC0D29)	0.500	-1.356	-0.003	43.823	-22.522	214.478	-88.80	9.27	10.26	18.816	31.654	41.062	0.67303	-0.70947	-0.19232	-0.08124	27.6	13111	100
2025-3-13 11:58:22.509	WT901BLE68(E947F43FF2E9)	0.262	1.020	-0.088	-13.306	7.446	38.086	96.55	-17.41	97.65	24.206	-60.466	16.660	0.35855	0.55783	0.50046	0.55649	27.2	13111	100
2025-3-13 11:58:22.526	WT901BLE68(490AABDC0D29)	-1.126	-1.316	-0.212	31.128	-38.025	158.203	-82.56	27.42	16.88	18.816	31.654	41.062	0.67303	-0.70947	-0.19232	-0.08124	27.6	13111	100
2025-3-13 11:58:22.623	WT901BLE68(E947F43FF2E9)	0.294	1.054	-0.012	-33.203	5.493	50.537	94.07	-21.36	98.58	12.152	-63.014	12.152	0.35855	0.55783	0.50046	0.55649	27.2	13111	100
2025-3-13 11:58:22.652	WT901BLE68(490AABDC0D29)	-0.227	-1.165	0.091	-35.217	-25.574	-86.060	-84.78	24.42	16.74	18.816	31.654	41.062	0.68411	-0.68774	0.00327	0.24265	27.6	13111	100
2025-3-13 11:58:22.710	WT901BLE68(E947F43FF2E9)	0.283	1.406	-0.164	-50.354	32.898	78.857	89.36	-27.22	100.07	12.152	-63.014	12.152	0.35855	0.55783	0.50046	0.55649	27.2	13111	100
2025-3-13 11:58:22.728	WT901BLE68(490AABDC0D29)	-0.292	-1.166	-0.144	-65.063	-33.142	-72.510	-88.45	17.32	21.37	18.816	31.654	41.062	0.68411	-0.68774	0.00327	0.24265	27.6	13111	100
2025-3-13 11:58:22.808	WT901BLE68(E947F43FF2E9)	-0.190	0.838	0.031	-86.731	102.356	70.862	78.15	-33.79	107.94	12.152	-63.014	12.152	0.28134	0.53796	0.33423	0.72083	27.2	13111	100
2025-3-13 11:58:22.851	WT901BLE68(490AABDC0D29)	-0.194	-0.961	-0.124	-27.832	8.789	-44.922	-92.29	12.41	20.20	22.148	31.948	40.278	0.68411	-0.68774	0.00327	0.24265	27.6	13111	100
2025-3-13 11:58:22.910	WT901BLE68(E947F43FF2E9)	0.034	0.461	-0.044	-8.362	30.884	-40.771	72.36	-34.58	110.91	12.152	-63.014	12.152	0.28134	0.53796	0.33423	0.72083	27.2	13111	100
2025-3-13 11:58:22.927	WT901BLE68(490AABDC0D29)	-0.096	-0.972	-0.164	-14.160	0.244	-44.861	-94.33	7.97	20.36	22.148	31.948	40.278	0.68411	-0.68774	0.00327	0.24265	27.6	13111	100
2025-3-13 11:58:23.35	WT901BLE68(E947F43FF2E9)	0.037	0.807	-0.183	95.947	-29.480	-141.113	83.55	-25.21	98.29	5.684	-69.580	5.782	0.28134	0.53796	0.33423	0.72083	27.2	13111	100
2025-3-13 11:58:23.53	WT901BLE68(490AABDC0D29)	-0.068	-0.976	-0.164	-3.845	0.793	-40.100	-95.21	4.02	20.56	22.148	31.948	40.278	0.65939	-0.72986	-0.12180	0.13257	27.6	13111	100
2025-3-13 11:58:23.110	WT901BLE68(E947F43FF2E9)	0.507	1.374	0.022	144.287	12.146	-198.547	96.98	-6.66	98.58	5.684	-69.580	5.782	0.28134	0.53796	0.33423	0.72083	27.2	13111	100
2025-3-13 11:58:23.127	WT901BLE68(490AABDC0D29)	0.001	-0.976	-0.167	0.305	4.333	-37.354	-95.54	0.49	20.56	22.148	31.948	40.278	0.65939	-0.72986	-0.12180	0.13257	27.6	13111	100
2025-3-13 11:58:23.208	WT901BLE68(E947F43FF2E9)	-0.591	1.572	0.440	100.769	-31.677	-150.391	109.80	10.79	103.96	5.684	-69.580	5.782	0.42078	0.45547	0.68436	0.38342	27.2	13111	100
2025-3-13 11:58:23.254	WT901BLE68(490AABDC0D29)	0.015	-0.978	-0.167	-3.540	0.061	-61.279	-95.81	-3.94	20.44	7.448	39.494	41.650	0.65939	-0.72986	-0.12180	0.13257	27.6	13111	100
2025-3-13 11:58:23.328	WT901BLE68(490AABDC0D29)	-0.097	-1.371	-0.148	-13.855	26.672	-90.332	-96.59	-11.03	20.29	7.448	39.494	41.650	0.65939	-0.72986	-0.12180	0.13257	27.6	13111	100
2025-3-13 11:58:23.335	WT901BLE68(E947F43FF2E9)	0.059	1.146	0.285	-80.994	11.475	44.556	107.88	8.93	100.01	5.684	-69.580	5.782	0.42078	0.45547	0.68436	0.38342	27.2	13111	100
2025-3-13 11:58:23.408	WT901BLE68(E947F43FF2E9)	0.060	0.833	0.028	-7.568	-13.611	51.758	105.06	-0.23	94.90	40.670	-62.230	27.832	0.42078	0.45547	0.68436	0.38342	27.2	13111	100
2025-3-13 11:58:23.453	WT901BLE68(490AABDC0D29)	-0.426	-1.139	-0.232	0.488	102.539	-103.455	-96.88	-20.72	14.50	7.448	39.494	41.650	0.66791	-0.70477	-0.20822	-0.11713	27.6	13111	100
2025-3-13 11:58:23.534	WT901BLE68(E947F43FF2E9)	0.083	1.005	-0.229	-15.686	2.319	33.936	104.24	-4.48	95.32	40.670	-62.230	27.832	0.42078	0.45547	0.68436	0.38342	27.2	13111	100
2025-3-13 11:58:23.553	WT901BLE68(490AABDC0D29)	-0.010	-0.662	-0.062	-2.319	-30.273	-16.052	-94.99	-27.99	6.99	7.448	39.494	41.650	0.66791	-0.70477	-0.20822	-0.11713	27.6	13111	100
2025-3-13 11:58:23.611	WT901BLE68(E947F43FF2E9)	0.108	0.970	-0.197	-6.165	14.404	32.715	102.22	-7.57	96.81	40.670	-62.230	27.832	0.37216	0.54712	0.55078	0.50858	27.2	13111	100
2025-3-13 11:58:23.653	WT901BLE68(490AABDC0D29)	0.065	-0.838	-0.067	39.124	-33.936	112.549	-95.81	-20.43	11.45	-0.490	44.100	43.512	0.66791	-0.70477	-0.20822	-0.11713	27.6	13111	100
2025-3-13 11:58:23.733	WT901BLE68(E947F43FF2E9)	0.223	1.003	-0.144	-11.108	-7.263	42.725	101.31	-11.09	97.73	40.670	-62.230	27.832	0.37216	0.54712	0.55078	0.50858	27.2	13111	100
2025-3-13 11:58:23.751	WT901BLE68(490AABDC0D29)	0.075	-1.130	-0.156	45.349	-62.439	152.100	-91.89	-5.03	13.49	-0.490	44.100	43.512	0.66791	-0.70477	-0.20822	-0.11713	27.6	13111	100
2025-3-13 11:58:23.812	WT901BLE68(E947F43FF2E9)	0.340	1.001	-0.076	-18.433	-13.550	44.556	100.09	-14.98	96.62	27.538	-68.992	24.402	0.37216	0.54712	0.55078	0.50858	27.2	13111	100
2025-3-13 11:58:23.854	WT901BLE68(490AABDC0D29)	0.119	-1.229	-0.104	51.086	-145.020	141.541	-87.15	9.53	23.82	-0.490	44.100	43.512	0.68927	-0.65408	-0.09238	0.29739	27.6	13111	100
2025-3-13 11:58:23.935	WT901BLE68(E947F43FF2E9)	0.373	0.951	-0.214	-11.597	4.395	32.715	98.70	-18.25	95.86	27.538	-68.992	24.402	0.37216	0.54712	0.55078	0.50858	27.2	13111	100
2025-3-13 11:58:23.953	WT901BLE68(490AABDC0D29)	-0.195	-1.027	-0.466	16.602	-196.228	78.064	-78.92	17.28	42.28	-0.490	44.100	43.512	0.68927	-0.65408	-0.09238	0.29739	27.6	13111	100
2025-3-13 11:58:24.12	WT901BLE68(E947F43FF2E9)	0.473	0.943	-0.183	-14.221	31.799	24.048	97.03	-21.12	98.06	27.538	-68.992	24.402	0.31262	0.56564	0.47363	0.59821	27.2	13111	100
2025-3-13 11:58:24.53	WT901BLE68(490AABDC0D29)	-0.094	-1.190	0.328	-72.510	-109.863	-50.354	-78.54	12.30	62.33	19.012	24.794	11.270	0.68927	-0.65408	-0.09238	0.29739	27.6	13111	100
2025-3-13 11:58:24.135	WT901BLE68(E947F43FF2E9)	0.463	0.909	-0.243	-17.517	78.003	7.751	93.33	-23.29	103.86	27.538	-68.992	24.402	0.31262	0.56564	0.47363	0.59821	27.2	13111	100
2025-3-13 11:58:24.153	WT901BLE68(490AABDC0D29)	-0.109	-1.003	-0.030	-69.214	-39.429	-43.762	-85.89	6.91	67.28	19.012	24.794	11.270	0.68927	-0.65408	-0.09238	0.29739	27.6	13111	100
2025-3-13 11:58:24.214	WT901BLE68(E947F43FF2E9)	0.141	0.889	-0.319	21.667	173.401	-1.038	88.76	-23.91	116.43	13.426	-70.364	22.246	0.31262	0.56564	0.47363	0.59821	27.2	13111	100
2025-3-13 11:58:24.276	WT901BLE68(490AABDC0D29)	-0.123	-1.004	-0.081	-38.696	0.916	-11.475	-91.40	3.97	68.03	19.012	24.794	11.270	0.55869	-0.61462	-0.38693	0.40030	27.6	13111	100
2025-3-13 11:58:24.335	WT901BLE68(E947F43FF2E9)	-0.156	0.853	-0.116	47.729	235.291	-21.973	84.37	-21.72	137.29	13.426	-70.364	22.246	0.31262	0.56564	0.47363	0.59821	27.2	13111	100
2025-3-13 11:58:24.353	WT901BLE68(490AABDC0D29)	-0.016	-0.991	-0.055	-25.330	-31.494	-25.574	-94.25	2.60	67.93	19.012	24.794	11.270	0.55869	-0.61462	-0.38693	0.40030	27.6	13111	100
2025-3-13 11:58:24.414	WT901BLE68(E947F43FF2E9)	-0.104	1.005	0.199	56.152	249.878	-36.743	82.53	-15.78	161.32	13.426	-70.364	22.246	-0.01730	0.12955	0.64841	0.74991	27.2	13111	100
2025-3-13 11:58:24.476	WT901BLE68(490AABDC0D29)	-0.023	-1.035	0.000	-18.494	-90.332	-48.706	-96.27	-0.37	71.49	3.724	34.104	15.680	0.55869	-0.61462	-0.38693	0.40030	27.6	13111	100
2025-3-13 11:58:24.535	WT901BLE68(E947F43FF2E9)	-0.021	1.030	0.381	44.006	165.649	-28.137	83.22	-9.19	-178.12	13.426	-70.364	22.246	-0.01730	0.12955	0.64841	0.74991	27.2	13111	100
2025-3-13 11:58:24.553	WT901BLE68(490AABDC0D29)	-0.096	-1.013	0.016	5.798	-184.998	-54.199	-96.39	-4.03	83.19	3.724	34.104	15.680	0.55869	-0.61462	-0.38693	0.40030	27.6	13111	100
2025-3-13 11:58:24.615	WT901BLE68(E947F43FF2E9)	0.048	0.971	0.270	38.513	100.464	-32.715	85.24	-4.31	-165.73	-3.626	-62.720	23.422	-0.01730	0.12955	0.64841	0.74991	27.2	13111	100
2025-3-13 11:58:24.678	WT901BLE68(490AABDC0D29)	-0.015	-0.942	-0.246	0.549	-187.866	-32.410	-97.15	-6.36	97.17	3.724	34.104	15.680	0.45135	-0.45547	-0.60129	0.47659	27.6	13111	100
2025-3-13 11:58:24.735	WT901BLE68(E947F43FF2E9)	0.131	0.947	0.021	32.837	57.251	-35.278	87.70	-0.24	-160.05	-3.626	-62.720	23.422	-0.01730	0.12955	0.64841	0.74991	27.2	13111	100
2025-3-13 11:58:24.753	WT901BLE68(490AABDC0D29)	0.010	-1.013	-0.120	-7.385	6.592	2.014	-98.03	-6.07	98.57	3.724	34.104	15.680	0.45135	-0.45547	-0.60129	0.47659	27.6	13111	100
2025-3-13 11:58:24.815	WT901BLE68(E947F43FF2E9)	-0.090	1.043	0.034	22.217	37.903	-22.034	89.64	3.01	-157.37	-3.626	-62.720	23.422	-0.12604	-0.17508	0.68842	0.69241	27.2	13111	100
2025-3-13 11:58:24.876	WT901BLE68(490AABDC0D29)	-0.027	-1.016	-0.112	6.104	3.235	9.766	-97.82	-5.33	91.74	3.724	34.104	15.680	0.45135	-0.45547	-0.60129	0.47659	27.6	13111	100
2025-3-13 11:58:24.935	WT901BLE68(E947F43FF2E9)	-0.113	0.944	-0.025	11.353	192.017	-31.860	91.97	5.65	-147.00	-3.626	-62.720	23.422	-0.12604	-0.17508	0.68842	0.69241	27.2	13111	100
2025-3-13 11:58:24.953	WT901BLE68(490AABDC0D29)	0.023	-0.979	-0.138	5.615	-0.732	-2.380	-96.88	-4.59	85.24	-19.110	34.790	16.464	0.45135	-0.45547	-0.60129	0.47659	27.6	13111	100
2025-3-13 11:58:25.16	WT901BLE68(E947F43FF2E9)	-0.137	0.956	-0.165	4.272	169.495	-8.179	94.50	6.38	-129.63	-8.820	-62.426	13.622	-0.12604	-0.17508	0.68842	0.69241	27.2	13111	100
2025-3-13 11:58:25.76	WT901BLE68(490AABDC0D29)	-0.043	-0.998	-0.102	11.719	-1.465	-10.437	-95.75	-5.17	78.91	-19.110	34.790	16.464	0.56967	-0.56445	-0.46405	0.37604	27.6	13111	100
2025-3-13 11:58:25.132	WT901BLE68(E947F43FF2E9)	-0.130	0.967	-0.163	-1.648	134.644	9.766	95.71	4.80	-113.30	-8.820	-62.426	13.622	-0.12604	-0.17508	0.68842	0.69241	27.2	13111	100
2025-3-13 11:58:25.153	WT901BLE68(490AABDC0D29)	0.039	-1.000	-0.089	24.597	-10.132	-15.503	-93.79	-6.04	72.99	-19.110	34.790	16.464	0.56967	-0.56445	-0.46405	0.37604	27.6	13111	100
2025-3-13 11:58:25.217	WT901BLE68(E947F43FF2E9)	0.107	0.964	-0.215	0.366	-8.362	21.057	95.93	2.77	-106.06	-8.820	-62.426	13.622	-0.37851	-0.43768	0.60153	0.55063	27.2	13111	100
2025-3-13 11:58:25.276	WT901BLE68(490AABDC0D29)	-0.061	-1.233	0.140	37.598	-51.758	-61.707	-90.76	-8.86	68.52	-28.420	28.812	12.250	0.56967	-0.56445	-0.46405	0.37604	27.6	13111	100
2025-3-13 11:58:25.333	WT901BLE68(E947F43FF2E9)	0.061	0.968	-0.055	4.028	12.939	21.545	96.30	0.66	-109.13	-8.820	-62.426	13.622	-0.37851	-0.43768	0.60153	0.55063	27.2	13111	100
2025-3-13 11:58:25.354	WT901BLE68(490AABDC0D29)	-0.276	-1.203	-0.128	34.729	-65.002	-118.713	-87.79	-17.90	67.69	-28.420	28.812	12.250	0.56967	-0.56445	-0.46405	0.37604	27.6	13111	100
2025-3-13 11:58:25.417	WT901BLE68(E947F43FF2E9)	0.128	1.010	-0.126	-0.183	6.592	26.184	96.63	-1.80	-106.86	-15.974	-58.604	7.546	-0.37851	-0.43768	0.60153	0.55063	27.2	13111	100
2025-3-13 11:58:25.477	WT901BLE68(490AABDC0D29)	-0.155	-0.670	-0.377	5.737	-213.074	-22.827	-93.13	-25.26	80.62	-28.420	28.812	12.250	0.55789	-0.43637	-0.58716	0.39172	27.6	13111	100
2025-3-13 11:58:25.533	WT901BLE68(E947F43FF2E9)	0.124	0.986	-0.112	-0.854	2.197	9.399	96.52	-3.58	-106.01	-15.974	-58.604	7.546	-0.37851	-0.43768	0.60153	0.55063	27.2	13111	100
2025-3-13 11:58:25.553	WT901BLE68(490AABDC0D29)	0.083	-0.983	-0.231	50.537	-148.987	115.601	-94.14	-17.57	90.17	-28.420	28.812	12.250	0.55789	-0.43637	-0.58716	0.39172	27.6	13111	100
2025-3-13 11:58:25.618	WT901BLE68(E947F43FF2E9)	0.139	0.991	-0.107	-2.808	5.493	8.728	96.31	-4.59	-105.04	-15.974	-58.604	7.546	-0.43771	-0.43201	0.60489	0.50571	27.2	13111	100
2025-3-13 11:58:25.676	WT901BLE68(490AABDC0D29)	0.278	-1.172	-0.255	49.377	-145.264	155.090	-90.29	-1.94	97.34	-29.694	40.670	33.320	0.55789	-0.43637	-0.58716	0.39172	27.6	13111	100
2025-3-13 11:58:25.733	WT901BLE68(E947F43FF2E9)	0.129	0.979	-0.125	-6.287	14.099	16.968	95.81	-5.94	-103.37	-15.974	-58.604	7.546	-0.43771	-0.43201	0.60489	0.50571	27.2	13111	100
2025-3-13 11:58:25.753	WT901BLE68(490AABDC0D29)	0.412	-1.181	-0.350	29.724	-121.155	122.192	-84.89	12.85	104.54	-29.694	40.670	33.320	0.55789	-0.43637	-0.58716	0.39172	27.6	13111	100
2025-3-13 11:58:25.819	WT901BLE68(E947F43FF2E9)	0.256	1.001	-0.154	0.793	13.123	35.461	95.43	-8.75	-100.73	-20.776	-54.586	4.802	-0.43771	-0.43201	0.60489	0.50571	27.2	13111	100
2025-3-13 11:58:25.876	WT901BLE68(490AABDC0D29)	0.839	-0.912	-0.378	-32.227	-67.871	-21.240	-84.97	16.72	107.89	-29.694	40.670	33.320	0.35471	-0.47748	-0.50906	0.62204	27.6	13111	100
2025-3-13 11:58:25.933	WT901BLE68(E947F43FF2E9)	0.227	1.284	-0.211	-13.855	12.146	69.702	94.84	-13.48	-99.03	-20.776	-54.586	4.802	-0.43771	-0.43201	0.60489	0.50571	27.2	13111	100
2025-3-13 11:58:25.953	WT901BLE68(490AABDC0D29)	-0.120	-1.066	0.264	-46.997	-12.573	-83.374	-88.87	12.56	106.97	-29.694	40.670	33.320	0.35471	-0.47748	-0.50906	0.62204	27.6	13111	100
2025-3-13 11:58:26.19	WT901BLE68(E947F43FF2E9)	0.547	1.431	-0.146	-48.401	76.843	102.844	91.23	-21.36	-94.26	-20.776	-54.586	4.802	-0.62766	-0.35446	0.57880	0.38120	27.2	13111	100
2025-3-13 11:58:26.76	WT901BLE68(490AABDC0D29)	-0.064	-0.938	-0.040	-30.640	-17.700	-36.560	-92.96	7.12	101.99	-26.656	42.924	51.450	0.35471	-0.47748	-0.50906	0.62204	27.6	13111	100
2025-3-13 11:58:26.132	WT901BLE68(E947F43FF2E9)	-0.471	0.667	-0.028	-50.659	93.628	90.515	80.10	-29.97	-81.75	-20.776	-54.586	4.802	-0.62766	-0.35446	0.57880	0.38120	27.2	13111	100
2025-3-13 11:58:26.152	WT901BLE68(490AABDC0D29)	-0.157	-1.012	-0.120	-23.926	5.066	-33.325	-95.33	3.72	96.60	-26.656	42.924	51.450	0.35471	-0.47748	-0.50906	0.62204	27.6	13111	100
2025-3-13 11:58:26.233	WT901BLE68(E947F43FF2E9)	-0.184	0.450	0.008	73.181	33.020	-109.070	77.83	-26.48	-73.20	-26.068	-45.276	-13.230	-0.62766	-0.35446	0.57880	0.38120	27.2	13111	100
2025-3-13 11:58:26.277	WT901BLE68(490AABDC0D29)	-0.033	-0.959	-0.118	-16.174	2.014	-28.625	-96.83	0.68	90.12	-26.656	42.924	51.450	0.49384	-0.54562	-0.51895	0.43472	27.6	13111	100
2025-3-13 11:58:26.333	WT901BLE68(E947F43FF2E9)	0.381	1.128	0.193	139.404	63.538	-209.839	89.90	-7.76	-70.68	-26.068	-45.276	-13.230	-0.62766	-0.35446	0.57880	0.38120	27.2	13111	100
2025-3-13 11:58:26.352	WT901BLE68(490AABDC0D29)	0.021	-0.989	-0.146	-13.489	-2.014	-34.790	-97.81	-2.52	84.68	-26.656	42.924	51.450	0.49384	-0.54562	-0.51895	0.43472	27.6	13111	100
2025-3-13 11:58:26.433	WT901BLE68(E947F43FF2E9)	-0.587	2.008	0.332	137.695	-40.588	-211.914	104.40	14.91	-66.60	-26.068	-45.276	-13.230	-0.37970	-0.71191	0.35333	0.47330	27.2	13111	100
2025-3-13 11:58:26.477	WT901BLE68(490AABDC0D29)	0.080	-0.994	-0.138	-4.883	7.019	-42.603	-98.29	-5.94	78.96	-38.220	35.868	55.762	0.49384	-0.54562	-0.51895	0.43472	27.6	13111	100
2025-3-13 11:58:26.533	WT901BLE68(E947F43FF2E9)	0.161	1.399	-0.344	-62.378	-20.325	85.144	104.02	22.00	-73.40	-26.068	-45.276	-13.230	-0.37970	-0.71191	0.35333	0.47330	27.2	13111	100
2025-3-13 11:58:26.552	WT901BLE68(490AABDC0D29)	0.030	-1.235	-0.156	-6.836	-19.653	-75.012	-98.59	-11.34	74.55	-38.220	35.868	55.762	0.49384	-0.54562	-0.51895	0.43472	27.6	13111	100
2025-3-13 11:58:26.633	WT901BLE68(E947F43FF2E9)	-0.098	1.112	-0.083	7.263	-26.428	85.510	97.91	14.63	-85.94	1.274	-67.130	0.392	-0.37970	-0.71191	0.35333	0.47330	27.2	13111	100
2025-3-13 11:58:26.677	WT901BLE68(490AABDC0D29)	0.052	-1.292	-0.099	-28.320	45.105	-116.333	-99.83	-19.93	68.60	-38.220	35.868	55.762	0.63101	-0.55203	-0.51630	0.17435	27.6	13111	100
