time	DeviceName	AccX(g)	AccY(g)	AccZ(g)	AsX(°/s)	AsY(°/s)	AsZ(°/s)	AngleX(°)	AngleY(°)	AngleZ(°)	HX(uT)	HY(uT)	HZ(uT)	Q0()	Q1()	Q2()	Q3()	Temperature(°C)	Version()	Battery level(%)
2025-3-20 10:50:11.827	WT901BLE68(490AABDC0D29)	-0.020	0.993	0.102	-2.563	-1.587	0.000	79.55	0.68	-150.73	-13.034	-40.572	17.934	0.19058	0.16617	-0.61786	-0.74445	24.2	13111	100
2025-3-20 10:50:11.834	WT901BLE68(E947F43FF2E9)	0.036	0.690	-0.688	-0.977	0.916	-0.427	133.26	-2.21	99.61	20.776	-39.004	44.394	0.24237	0.59833	0.69604	0.31409	26.0	13111	100
2025-3-20 10:50:11.895	WT901BLE68(E947F43FF2E9)	0.026	0.692	-0.686	-0.854	0.061	0.122	133.26	-2.20	99.71	20.776	-39.004	44.394	0.24216	0.59756	0.69662	0.31445	26.0	13111	100
2025-3-20 10:50:11.917	WT901BLE68(490AABDC0D29)	-0.018	0.994	0.100	-2.625	-1.892	0.000	79.57	0.68	-150.73	-13.034	-40.572	17.934	0.19040	0.16599	-0.61798	-0.74442	24.2	13111	100
2025-3-20 10:50:12.14	WT901BLE68(E947F43FF2E9)	0.031	0.689	-0.686	-1.282	-0.305	0.916	133.25	-2.21	99.68	20.776	-39.004	44.394	0.24216	0.59756	0.69662	0.31445	26.0	13111	100
2025-3-20 10:50:12.37	WT901BLE68(490AABDC0D29)	-0.019	0.993	0.102	-2.991	-1.648	0.000	79.55	0.67	-150.76	-13.034	-40.572	17.934	0.19040	0.16599	-0.61798	-0.74442	24.2	13111	100
2025-3-20 10:50:12.98	WT901BLE68(490AABDC0D29)	-0.019	0.992	0.101	-2.808	-1.465	0.000	79.55	0.67	-150.75	-12.936	-40.572	17.836	0.19040	0.16599	-0.61798	-0.74442	24.2	13111	100
2025-3-20 10:50:12.107	WT901BLE68(E947F43FF2E9)	0.027	0.689	-0.688	-0.549	0.610	0.122	133.26	-2.22	99.71	20.776	-39.004	44.394	0.24216	0.59756	0.69662	0.31445	26.0	13111	100
2025-3-20 10:50:12.217	WT901BLE68(490AABDC0D29)	-0.017	0.993	0.100	-2.747	-1.648	0.000	79.55	0.67	-150.74	-12.936	-40.572	17.836	0.19040	0.16599	-0.61798	-0.74442	24.2	13111	100
2025-3-20 10:50:12.223	WT901BLE68(E947F43FF2E9)	0.028	0.690	-0.686	-1.038	-0.427	0.732	133.28	-2.23	99.64	20.776	-39.004	44.394	0.24216	0.59756	0.69662	0.31445	26.0	13111	100
2025-3-20 10:50:12.311	WT901BLE68(490AABDC0D29)	-0.015	0.993	0.103	-2.441	-1.404	0.000	79.56	0.68	-150.73	-12.936	-40.572	17.836	0.19052	0.16614	-0.61807	-0.74429	24.2	13111	100
2025-3-20 10:50:12.315	WT901BLE68(E947F43FF2E9)	0.035	0.686	-0.690	-1.343	-0.671	-0.366	133.27	-2.16	99.66	20.776	-39.004	44.394	0.24319	0.59766	0.69675	0.31317	26.0	13111	100
2025-3-20 10:50:12.426	WT901BLE68(490AABDC0D29)	-0.029	0.994	0.097	-0.427	-2.380	0.732	79.71	0.63	-150.72	-12.936	-40.572	17.836	0.19052	0.16614	-0.61807	-0.74429	24.2	13111	100
2025-3-20 10:50:12.434	WT901BLE68(E947F43FF2E9)	0.125	0.688	-0.699	1.709	-0.061	-1.038	133.39	-1.99	99.63	20.776	-39.004	44.394	0.24319	0.59766	0.69675	0.31317	26.0	13111	100
2025-3-20 10:50:12.525	WT901BLE68(E947F43FF2E9)	0.359	0.711	-0.691	7.874	-11.963	11.902	133.91	-1.94	98.95	21.266	-38.514	44.590	0.24319	0.59766	0.69675	0.31317	26.0	13111	100
2025-3-20 10:50:12.547	WT901BLE68(490AABDC0D29)	0.049	1.031	0.080	4.456	-20.325	-7.507	80.12	0.75	-151.23	-13.034	-40.670	18.424	0.19052	0.16614	-0.61807	-0.74429	24.2	13111	100
2025-3-20 10:50:12.637	WT901BLE68(490AABDC0D29)	-0.182	0.999	0.067	-2.075	4.089	-5.066	80.47	0.99	-152.92	-13.034	-40.670	18.424	0.19052	0.16614	-0.61807	-0.74429	24.2	13111	100
2025-3-20 10:50:12.645	WT901BLE68(E947F43FF2E9)	0.162	0.728	-0.562	0.671	-19.043	50.537	134.75	-3.03	96.06	21.266	-38.514	44.590	0.24319	0.59766	0.69675	0.31317	26.0	13111	100
2025-3-20 10:50:12.714	WT901BLE68(E947F43FF2E9)	0.051	0.629	-0.626	6.653	-2.625	64.148	135.08	-7.37	91.92	21.266	-38.514	44.590	0.20926	0.67719	0.62833	0.32053	26.0	13111	100
2025-3-20 10:50:12.726	WT901BLE68(490AABDC0D29)	-0.021	0.958	0.083	-10.315	86.975	2.991	79.56	2.27	-146.30	-13.034	-40.670	18.424	0.21762	0.20761	-0.60480	-0.73734	24.2	13111	100
2025-3-20 10:50:12.822	WT901BLE68(E947F43FF2E9)	0.097	0.645	-0.612	-8.179	17.334	61.035	136.02	-11.96	88.49	21.266	-38.514	44.590	0.20926	0.67719	0.62833	0.32053	26.0	13111	100
2025-3-20 10:50:12.846	WT901BLE68(490AABDC0D29)	-0.074	0.984	0.086	13.977	8.911	5.371	80.88	2.43	-143.30	-13.034	-40.670	18.424	0.21762	0.20761	-0.60480	-0.73734	24.2	13111	100
2025-3-20 10:50:12.915	WT901BLE68(490AABDC0D29)	-0.242	1.026	0.088	9.338	10.376	2.991	82.19	2.38	-142.74	-9.506	-41.454	19.894	0.21762	0.20761	-0.60480	-0.73734	24.2	13111	100
2025-3-20 10:50:12.916	WT901BLE68(E947F43FF2E9)	0.121	0.624	-0.668	-35.034	59.875	36.804	134.06	-17.27	87.84	11.368	-40.866	43.218	0.20926	0.67719	0.62833	0.32053	26.0	13111	100
2025-3-20 10:50:13.24	WT901BLE68(490AABDC0D29)	0.338	1.593	0.211	34.302	30.640	18.066	84.46	1.43	-141.96	-9.506	-41.454	19.894	0.21762	0.20761	-0.60480	-0.73734	24.2	13111	100
2025-3-20 10:50:13.31	WT901BLE68(E947F43FF2E9)	0.154	0.737	-0.479	-46.326	53.101	0.549	129.27	-21.53	91.18	11.368	-40.866	43.218	0.20926	0.67719	0.62833	0.32053	26.0	13111	100
2025-3-20 10:50:13.116	WT901BLE68(490AABDC0D29)	0.159	0.708	-0.024	49.133	-41.809	-48.218	88.77	3.44	-142.23	-9.506	-41.454	19.894	0.19388	0.25073	-0.66153	-0.67957	24.2	13111	100
2025-3-20 10:50:13.125	WT901BLE68(E947F43FF2E9)	0.267	0.725	-0.297	-66.040	57.800	-38.818	120.93	-22.92	98.88	11.368	-40.866	43.218	0.21262	0.57910	0.59576	0.51419	26.0	13111	100
2025-3-20 10:50:13.236	WT901BLE68(490AABDC0D29)	0.062	0.500	-0.021	-31.921	182.861	-22.888	90.35	6.21	-135.41	-9.506	-41.454	19.894	0.19388	0.25073	-0.66153	-0.67957	24.2	13111	100
2025-3-20 10:50:13.245	WT901BLE68(E947F43FF2E9)	0.394	0.784	-0.397	-68.298	-3.906	-64.514	112.01	-18.38	105.68	11.368	-40.866	43.218	0.21262	0.57910	0.59576	0.51419	26.0	13111	100
2025-3-20 10:50:13.302	WT901BLE68(E947F43FF2E9)	0.282	1.168	-0.286	-77.087	-0.183	-45.959	104.78	-12.62	105.92	11.466	-56.056	28.518	0.21262	0.57910	0.59576	0.51419	26.0	13111	100
2025-3-20 10:50:13.327	WT901BLE68(490AABDC0D29)	-0.326	0.621	-0.064	-54.382	72.815	28.015	86.67	5.78	-123.64	-2.548	-44.002	25.970	0.19388	0.25073	-0.66153	-0.67957	24.2	13111	100
2025-3-20 10:50:13.425	WT901BLE68(E947F43FF2E9)	0.219	1.139	-0.210	-80.994	38.818	-60.547	96.32	-8.01	109.64	11.466	-56.056	28.518	0.21262	0.57910	0.59576	0.51419	26.0	13111	100
2025-3-20 10:50:13.447	WT901BLE68(490AABDC0D29)	0.146	1.555	-0.089	-26.428	-131.653	0.610	82.96	0.69	-129.31	-2.548	-44.002	25.970	0.19388	0.25073	-0.66153	-0.67957	24.2	13111	100
2025-3-20 10:50:13.507	WT901BLE68(490AABDC0D29)	-0.008	0.544	-0.011	-8.545	39.612	10.925	81.51	-0.62	-132.75	-2.548	-44.002	25.970	0.31082	0.26022	-0.59912	-0.69037	24.2	13111	100
2025-3-20 10:50:13.514	WT901BLE68(E947F43FF2E9)	0.085	1.070	-0.243	-34.302	42.725	-15.869	90.58	-4.77	114.25	11.466	-56.056	28.518	0.35675	0.40051	0.57980	0.61319	26.0	13111	100
2025-3-20 10:50:13.628	WT901BLE68(490AABDC0D29)	0.151	1.194	-0.037	-0.427	-52.185	0.305	81.30	-1.16	-134.03	-2.548	-44.002	25.970	0.31082	0.26022	-0.59912	-0.69037	24.2	13111	100
2025-3-20 10:50:13.634	WT901BLE68(E947F43FF2E9)	0.125	0.915	-0.187	-11.230	24.719	-14.221	89.34	-4.02	115.92	11.466	-56.056	28.518	0.35675	0.40051	0.57980	0.61319	26.0	13111	100
2025-3-20 10:50:13.716	WT901BLE68(490AABDC0D29)	0.113	0.847	0.083	18.738	-21.667	-7.202	82.97	-1.05	-137.43	-6.860	-43.120	22.442	0.31082	0.26022	-0.59912	-0.69037	24.2	13111	100
2025-3-20 10:50:13.724	WT901BLE68(E947F43FF2E9)	0.056	1.234	0.130	-10.681	-10.132	-2.319	89.13	-3.59	115.62	16.170	-61.544	17.738	0.35675	0.40051	0.57980	0.61319	26.0	13111	100
2025-3-20 10:50:13.838	WT901BLE68(490AABDC0D29)	-0.157	1.021	-0.070	-6.592	84.473	-8.728	84.26	-0.09	-136.58	-6.860	-43.120	22.442	0.31082	0.26022	-0.59912	-0.69037	24.2	13111	100
2025-3-20 10:50:13.845	WT901BLE68(E947F43FF2E9)	0.062	0.963	0.029	-10.193	13.428	1.282	88.00	-3.72	116.93	16.170	-61.544	17.738	0.35675	0.40051	0.57980	0.61319	26.0	13111	100
2025-3-20 10:50:13.928	WT901BLE68(490AABDC0D29)	-0.017	0.968	-0.065	2.014	44.373	8.057	82.02	0.82	-128.87	-6.860	-43.120	22.442	0.32260	0.28860	-0.59268	-0.67914	24.2	13111	100
2025-3-20 10:50:13.934	WT901BLE68(E947F43FF2E9)	0.085	0.987	0.094	-0.610	0.854	0.916	87.47	-3.86	118.92	16.170	-61.544	17.738	0.34402	0.37000	0.58371	0.63553	26.0	13111	100
2025-3-20 10:50:14.47	WT901BLE68(490AABDC0D29)	0.036	1.024	-0.016	7.690	-13.245	10.559	83.20	-0.12	-130.36	-6.860	-43.120	22.442	0.32260	0.28860	-0.59268	-0.67914	24.2	13111	100
2025-3-20 10:50:14.55	WT901BLE68(E947F43FF2E9)	0.045	1.028	0.034	-7.141	11.047	-3.479	87.16	-3.85	120.24	16.170	-61.544	17.738	0.34402	0.37000	0.58371	0.63553	26.0	13111	100
2025-3-20 10:50:14.115	WT901BLE68(E947F43FF2E9)	0.039	0.994	0.061	-13.794	11.597	-6.287	85.84	-3.32	122.45	15.680	-62.328	15.876	0.34402	0.37000	0.58371	0.63553	26.0	13111	100
2025-3-20 10:50:14.137	WT901BLE68(490AABDC0D29)	0.019	0.992	0.042	-4.395	-5.615	1.526	83.31	-0.82	-133.84	-3.822	-43.708	24.696	0.32260	0.28860	-0.59268	-0.67914	24.2	13111	100
2025-3-20 10:50:14.235	WT901BLE68(E947F43FF2E9)	-0.020	0.995	0.082	-3.784	21.851	-10.681	84.93	-2.37	124.64	15.680	-62.328	15.876	0.34402	0.37000	0.58371	0.63553	26.0	13111	100
2025-3-20 10:50:14.257	WT901BLE68(490AABDC0D29)	0.044	0.984	0.029	8.057	-7.324	5.554	83.97	-1.42	-136.66	-3.822	-43.708	24.696	0.32260	0.28860	-0.59268	-0.67914	24.2	13111	100
2025-3-20 10:50:14.317	WT901BLE68(490AABDC0D29)	0.106	0.968	-0.052	1.343	-16.235	8.118	84.77	-2.39	-140.06	-3.822	-43.708	24.696	0.26163	0.20975	-0.64142	-0.68994	24.2	13111	100
2025-3-20 10:50:14.324	WT901BLE68(E947F43FF2E9)	0.044	0.917	0.016	10.315	39.673	-16.418	85.23	-0.76	128.64	15.680	-62.328	15.876	0.31204	0.28287	0.62051	0.66141	26.0	13111	100
2025-3-20 10:50:14.438	WT901BLE68(490AABDC0D29)	0.095	0.997	-0.012	-8.179	-1.160	8.850	84.90	-3.44	-142.70	-3.822	-43.708	24.696	0.26163	0.20975	-0.64142	-0.68994	24.2	13111	100
2025-3-20 10:50:14.445	WT901BLE68(E947F43FF2E9)	-0.081	0.988	0.111	4.883	15.991	-21.667	86.18	1.46	130.84	15.680	-62.328	15.876	0.31204	0.28287	0.62051	0.66141	26.0	13111	100
2025-3-20 10:50:14.527	WT901BLE68(490AABDC0D29)	0.079	1.000	0.001	-15.747	-1.160	2.441	84.06	-4.16	-144.56	-6.566	-43.806	24.696	0.26163	0.20975	-0.64142	-0.68994	24.2	13111	100
2025-3-20 10:50:14.534	WT901BLE68(E947F43FF2E9)	-0.088	1.005	0.125	-1.892	0.305	-19.409	86.11	3.35	132.19	18.522	-61.936	16.170	0.31204	0.28287	0.62051	0.66141	26.0	13111	100
2025-3-20 10:50:14.647	WT901BLE68(490AABDC0D29)	0.102	1.002	0.024	-19.531	-0.061	0.977	82.73	-4.48	-146.18	-6.566	-43.806	24.696	0.26163	0.20975	-0.64142	-0.68994	24.2	13111	100
2025-3-20 10:50:14.655	WT901BLE68(E947F43FF2E9)	-0.114	0.996	0.064	1.770	4.456	-15.930	86.09	4.94	133.27	18.522	-61.936	16.170	0.31204	0.28287	0.62051	0.66141	26.0	13111	100
2025-3-20 10:50:14.714	WT901BLE68(E947F43FF2E9)	-0.190	0.988	0.051	5.676	-2.930	-12.329	86.42	6.41	133.91	18.522	-61.936	16.170	0.32059	0.22638	0.64883	0.65182	26.0	13111	100
2025-3-20 10:50:14.738	WT901BLE68(490AABDC0D29)	0.124	0.996	0.063	-13.062	3.723	-2.380	81.37	-4.56	-147.56	-6.566	-43.806	24.696	0.23410	0.15079	-0.63229	-0.72287	24.2	13111	100
2025-3-20 10:50:14.836	WT901BLE68(E947F43FF2E9)	-0.130	0.984	0.059	10.254	1.770	1.404	87.26	7.15	134.63	18.522	-61.936	16.170	0.32059	0.22638	0.64883	0.65182	26.0	13111	100
2025-3-20 10:50:14.857	WT901BLE68(490AABDC0D29)	0.054	0.988	0.080	-4.456	6.592	-12.146	80.87	-4.02	-148.30	-6.566	-43.806	24.696	0.23410	0.15079	-0.63229	-0.72287	24.2	13111	100
2025-3-20 10:50:14.916	WT901BLE68(490AABDC0D29)	0.005	0.976	0.086	7.690	20.996	-20.142	81.14	-2.24	-148.85	-3.822	-43.022	23.128	0.23410	0.15079	-0.63229	-0.72287	24.2	13111	100
2025-3-20 10:50:14.924	WT901BLE68(E947F43FF2E9)	-0.105	0.989	-0.017	10.620	-1.709	13.550	88.23	6.39	135.56	20.286	-61.054	18.326	0.32059	0.22638	0.64883	0.65182	26.0	13111	100
2025-3-20 10:50:15.39	WT901BLE68(490AABDC0D29)	-0.048	1.001	0.049	7.141	9.644	-25.452	82.19	0.00	-150.02	-3.822	-43.022	23.128	0.23410	0.15079	-0.63229	-0.72287	24.2	13111	100
2025-3-20 10:50:15.43	WT901BLE68(E947F43FF2E9)	-0.051	1.000	0.022	-0.916	-1.221	17.212	88.66	4.95	136.30	20.286	-61.054	18.326	0.32059	0.22638	0.64883	0.65182	26.0	13111	100
2025-3-20 10:50:15.127	WT901BLE68(490AABDC0D29)	-0.064	0.981	0.041	2.869	23.926	-24.231	82.81	2.55	-150.30	-3.822	-43.022	23.128	0.17334	0.19049	-0.63452	-0.72867	24.2	13111	100
2025-3-20 10:50:15.134	WT901BLE68(E947F43FF2E9)	-0.034	1.027	0.057	4.761	-7.813	11.169	89.00	3.56	136.56	20.286	-61.054	18.326	0.27994	0.24158	0.65976	0.65411	26.0	13111	100
2025-3-20 10:50:15.248	WT901BLE68(490AABDC0D29)	-0.049	1.002	0.025	-0.061	-2.075	-22.339	83.23	4.88	-151.57	-3.822	-43.022	23.128	0.17334	0.19049	-0.63452	-0.72867	24.2	13111	100
2025-3-20 10:50:15.254	WT901BLE68(E947F43FF2E9)	-0.051	0.984	-0.001	0.427	8.972	7.263	89.30	2.83	137.04	20.286	-61.054	18.326	0.27994	0.24158	0.65976	0.65411	26.0	13111	100
2025-3-20 10:50:15.338	WT901BLE68(490AABDC0D29)	-0.175	0.992	0.031	-6.897	16.907	-21.301	82.92	6.89	-153.01	4.998	-41.944	25.774	0.17334	0.19049	-0.63452	-0.72867	24.2	13111	100
2025-3-20 10:50:15.345	WT901BLE68(E947F43FF2E9)	-0.018	1.008	0.014	-5.920	3.601	3.845	89.04	2.41	138.03	17.444	-60.956	19.012	0.27994	0.24158	0.65976	0.65411	26.0	13111	100
2025-3-20 10:50:15.464	WT901BLE68(E947F43FF2E9)	-0.067	0.989	-0.007	-12.939	3.113	-4.822	88.14	2.45	138.85	17.444	-60.956	19.012	0.27994	0.24158	0.65976	0.65411	26.0	13111	100
2025-3-20 10:50:15.487	WT901BLE68(490AABDC0D29)	-0.208	0.976	0.083	-7.996	99.609	-15.076	83.11	9.54	-147.37	4.998	-41.944	25.774	0.17334	0.19049	-0.63452	-0.72867	24.2	13111	100
2025-3-20 10:50:15.524	WT901BLE68(E947F43FF2E9)	-0.084	0.972	0.000	-14.160	-2.441	-9.216	86.91	3.16	139.09	17.444	-60.956	19.012	0.27759	0.21832	0.64667	0.67603	26.0	13111	100
2025-3-20 10:50:15.546	WT901BLE68(490AABDC0D29)	-0.479	0.954	-0.025	-22.827	163.574	7.080	84.29	11.07	-135.94	4.998	-41.944	25.774	0.24927	0.34497	-0.57977	-0.69470	24.2	13111	100
2025-3-20 10:50:15.645	WT901BLE68(E947F43FF2E9)	0.018	1.027	0.070	-20.813	-15.076	-9.399	85.26	4.04	138.30	17.444	-60.956	19.012	0.27759	0.21832	0.64667	0.67603	26.0	13111	100
2025-3-20 10:50:15.667	WT901BLE68(490AABDC0D29)	-0.053	0.881	-0.095	7.324	8.850	31.372	85.42	9.84	-128.81	4.998	-41.944	25.774	0.24927	0.34497	-0.57977	-0.69470	24.2	13111	100
2025-3-20 10:50:15.726	WT901BLE68(490AABDC0D29)	-0.003	1.011	0.050	3.113	6.287	29.419	86.25	6.79	-132.01	6.664	-42.924	35.280	0.24927	0.34497	-0.57977	-0.69470	24.2	13111	100
2025-3-20 10:50:15.735	WT901BLE68(E947F43FF2E9)	-0.049	1.104	0.090	-37.048	-7.141	-22.827	82.72	5.25	137.46	21.168	-62.720	13.034	0.27759	0.21832	0.64667	0.67603	26.0	13111	100
2025-3-20 10:50:15.847	WT901BLE68(490AABDC0D29)	-0.035	0.990	-0.021	4.211	10.132	18.921	86.98	4.61	-133.29	6.664	-42.924	35.280	0.24927	0.34497	-0.57977	-0.69470	24.2	13111	100
2025-3-20 10:50:15.854	WT901BLE68(E947F43FF2E9)	-0.279	1.310	0.133	-65.613	17.090	-36.865	77.79	8.38	138.26	21.168	-62.720	13.034	0.27759	0.21832	0.64667	0.67603	26.0	13111	100
2025-3-20 10:50:15.938	WT901BLE68(490AABDC0D29)	0.030	1.028	-0.040	12.878	6.775	17.639	88.25	2.95	-135.56	6.664	-42.924	35.280	0.25320	0.27341	-0.64246	-0.66953	24.2	13111	100
2025-3-20 10:50:15.943	WT901BLE68(E947F43FF2E9)	0.411	1.041	-0.064	-73.853	50.293	-86.121	70.88	15.41	140.15	21.168	-62.720	13.034	0.32220	-0.00287	0.59732	0.73434	26.0	13111	100
2025-3-20 10:50:16.58	WT901BLE68(490AABDC0D29)	-0.012	0.993	-0.054	-6.226	0.183	4.272	88.29	1.66	-138.00	6.664	-42.924	35.280	0.25320	0.27341	-0.64246	-0.66953	24.2	13111	100
2025-3-20 10:50:16.64	WT901BLE68(E947F43FF2E9)	0.149	0.503	-0.437	9.277	111.938	25.818	73.57	23.19	152.17	21.168	-62.720	13.034	0.32220	-0.00287	0.59732	0.73434	26.0	13111	100
2025-3-20 10:50:16.125	WT901BLE68(E947F43FF2E9)	-0.556	1.140	0.070	62.073	86.731	199.707	81.04	8.68	158.75	8.330	-63.112	13.328	0.32220	-0.00287	0.59732	0.73434	26.0	13111	100
2025-3-20 10:50:16.148	WT901BLE68(490AABDC0D29)	0.072	0.988	-0.084	-10.742	3.235	13.367	87.82	0.82	-140.24	1.862	-44.394	36.946	0.25320	0.27341	-0.64246	-0.66953	24.2	13111	100
2025-3-20 10:50:16.244	WT901BLE68(E947F43FF2E9)	-1.067	1.496	0.302	75.500	98.572	201.660	88.67	-12.14	166.91	8.330	-63.112	13.328	0.32220	-0.00287	0.59732	0.73434	26.0	13111	100
2025-3-20 10:50:16.267	WT901BLE68(490AABDC0D29)	0.083	0.996	-0.023	-13.611	-3.174	27.283	86.96	-1.43	-142.50	1.862	-44.394	36.946	0.25320	0.27341	-0.64246	-0.66953	24.2	13111	100
2025-3-20 10:50:16.327	WT901BLE68(490AABDC0D29)	0.021	1.077	-0.063	-15.808	-0.916	50.903	86.04	-5.18	-144.68	1.862	-44.394	36.946	0.26456	0.15060	-0.65909	-0.68762	24.2	13111	100
2025-3-20 10:50:16.334	WT901BLE68(E947F43FF2E9)	0.197	1.033	0.346	7.507	43.762	-40.527	88.38	-18.44	176.93	8.330	-63.112	13.328	-0.09933	0.07843	0.68228	0.72000	26.0	13111	100
2025-3-20 10:50:16.445	WT901BLE68(490AABDC0D29)	0.349	1.600	-0.042	-44.312	34.241	101.990	83.11	-12.01	-144.76	1.862	-44.394	36.946	0.26456	0.15060	-0.65909	-0.68762	24.2	13111	100
2025-3-20 10:50:16.455	WT901BLE68(E947F43FF2E9)	-0.031	1.127	-0.232	12.512	1.648	-82.520	86.93	-10.06	-177.03	8.330	-63.112	13.328	-0.09933	0.07843	0.68228	0.72000	26.0	13111	100
2025-3-20 10:50:16.536	WT901BLE68(490AABDC0D29)	-0.317	0.725	-0.191	-35.156	140.015	131.104	76.92	-23.33	-136.08	-17.542	-45.080	28.420	0.26456	0.15060	-0.65909	-0.68762	24.2	13111	100
2025-3-20 10:50:16.542	WT901BLE68(E947F43FF2E9)	-0.011	1.049	0.056	9.033	27.283	-44.739	87.65	-3.10	-173.13	1.568	-61.838	14.014	-0.09933	0.07843	0.68228	0.72000	26.0	13111	100
2025-3-20 10:50:16.657	WT901BLE68(490AABDC0D29)	-0.085	0.397	0.104	40.222	42.175	-36.133	71.39	-22.88	-121.73	-17.542	-45.080	28.420	0.26456	0.15060	-0.65909	-0.68762	24.2	13111	100
2025-3-20 10:50:16.664	WT901BLE68(E947F43FF2E9)	-0.000	1.003	-0.031	2.502	-2.930	-27.222	88.40	0.63	-172.20	1.568	-61.838	14.014	-0.09933	0.07843	0.68228	0.72000	26.0	13111	100
2025-3-20 10:50:16.746	WT901BLE68(490AABDC0D29)	-0.154	0.840	0.250	93.323	74.646	-135.193	80.26	-11.90	-122.60	-17.542	-45.080	28.420	0.39560	0.30215	-0.59485	-0.63107	24.2	13111	100
2025-3-20 10:50:16.753	WT901BLE68(E947F43FF2E9)	-0.075	1.002	-0.061	-2.136	13.123	-25.818	88.68	3.07	-172.39	1.568	-61.838	14.014	-0.01379	-0.07602	0.69321	0.71652	26.0	13111	100
2025-3-20 10:50:16.868	WT901BLE68(490AABDC0D29)	-0.110	1.235	0.405	83.984	108.459	-165.405	88.72	5.45	-116.11	-17.542	-45.080	28.420	0.39560	0.30215	-0.59485	-0.63107	24.2	13111	100
2025-3-20 10:50:16.875	WT901BLE68(E947F43FF2E9)	-0.152	1.003	-0.033	-9.094	11.353	-35.156	88.28	5.95	-172.92	1.568	-61.838	14.014	-0.01379	-0.07602	0.69321	0.71652	26.0	13111	100
2025-3-20 10:50:16.934	WT901BLE68(E947F43FF2E9)	-0.222	0.985	-0.030	-9.338	6.653	-33.447	87.73	9.16	-173.39	10.682	-64.484	12.250	-0.01379	-0.07602	0.69321	0.71652	26.0	13111	100
2025-3-20 10:50:16.956	WT901BLE68(490AABDC0D29)	0.374	1.340	0.319	63.477	-63.721	-140.259	95.71	21.62	-116.00	15.092	-39.886	48.510	0.39560	0.30215	-0.59485	-0.63107	24.2	13111	100
2025-3-20 10:50:17.55	WT901BLE68(E947F43FF2E9)	-0.342	0.996	-0.043	-13.550	-1.587	-37.903	86.89	12.34	-174.35	10.682	-64.484	12.250	-0.01379	-0.07602	0.69321	0.71652	26.0	13111	100
2025-3-20 10:50:17.76	WT901BLE68(490AABDC0D29)	-0.450	1.069	0.045	-17.639	62.195	-13.428	94.93	28.78	-123.16	15.092	-39.886	48.510	0.39560	0.30215	-0.59485	-0.63107	24.2	13111	100
2025-3-20 10:50:17.137	WT901BLE68(490AABDC0D29)	0.108	0.891	0.145	-7.629	-26.306	74.951	92.61	23.21	-126.70	15.092	-39.886	48.510	0.17331	0.39322	-0.59946	-0.67520	24.2	13111	100
2025-3-20 10:50:17.145	WT901BLE68(E947F43FF2E9)	-0.104	0.994	0.034	-36.621	-22.217	-39.795	84.64	16.03	-176.79	10.682	-64.484	12.250	0.09668	-0.12537	0.64432	0.74811	26.0	13111	100
2025-3-20 10:50:17.257	WT901BLE68(490AABDC0D29)	-0.076	1.241	-0.019	-6.348	5.005	53.955	91.79	15.92	-133.50	15.092	-39.886	48.510	0.17331	0.39322	-0.59946	-0.67520	24.2	13111	100
2025-3-20 10:50:17.263	WT901BLE68(E947F43FF2E9)	-0.163	1.495	0.033	-51.758	16.541	-50.659	79.87	19.63	179.91	10.682	-64.484	12.250	0.09668	-0.12537	0.64432	0.74811	26.0	13111	100
2025-3-20 10:50:17.346	WT901BLE68(490AABDC0D29)	-0.006	0.938	-0.192	-0.549	-17.334	39.368	91.56	10.96	-138.26	8.624	-44.002	49.686	0.17331	0.39322	-0.59946	-0.67520	24.2	13111	100
2025-3-20 10:50:17.385	WT901BLE68(E947F43FF2E9)	-0.049	0.991	-0.034	-68.054	-27.039	-99.243	71.69	26.76	172.18	29.008	-65.170	0.784	0.09668	-0.12537	0.64432	0.74811	26.0	13111	100
2025-3-20 10:50:17.467	WT901BLE68(490AABDC0D29)	-0.014	0.497	-0.061	1.770	3.784	30.823	91.66	7.23	-140.98	8.624	-44.002	49.686	0.17331	0.39322	-0.59946	-0.67520	24.2	13111	100
2025-3-20 10:50:17.475	WT901BLE68(E947F43FF2E9)	-0.209	0.502	-0.294	6.653	-20.691	66.589	71.56	29.25	173.25	29.008	-65.170	0.784	0.09668	-0.12537	0.64432	0.74811	26.0	13111	100
2025-3-20 10:50:17.532	WT901BLE68(E947F43FF2E9)	-0.324	0.979	-0.004	71.716	49.622	176.514	77.22	14.29	171.32	29.008	-65.170	0.784	0.04672	0.04102	0.67081	0.73895	26.0	13111	100
2025-3-20 10:50:17.557	WT901BLE68(490AABDC0D29)	0.034	0.983	-0.143	-5.127	2.197	23.926	91.94	4.46	-142.94	8.624	-44.002	49.686	0.19568	0.24225	-0.67599	-0.66779	24.2	13111	100
2025-3-20 10:50:17.653	WT901BLE68(E947F43FF2E9)	-0.420	1.294	0.118	88.867	-26.917	175.842	86.23	-3.28	173.16	29.008	-65.170	0.784	0.04672	0.04102	0.67081	0.73895	26.0	13111	100
2025-3-20 10:50:17.676	WT901BLE68(490AABDC0D29)	0.093	1.004	-0.133	-8.057	-4.883	31.799	91.51	1.57	-145.35	8.624	-44.002	49.686	0.19568	0.24225	-0.67599	-0.66779	24.2	13111	100
2025-3-20 10:50:17.737	WT901BLE68(490AABDC0D29)	0.152	0.999	-0.153	-12.085	-2.625	38.269	90.91	-2.02	-148.04	-1.960	-47.236	49.000	0.19568	0.24225	-0.67599	-0.66779	24.2	13111	100
2025-3-20 10:50:17.745	WT901BLE68(E947F43FF2E9)	-0.303	1.286	0.239	55.542	-55.359	115.601	94.31	-17.68	170.51	-5.096	-66.346	21.560	0.04672	0.04102	0.67081	0.73895	26.0	13111	100
2025-3-20 10:50:17.855	WT901BLE68(490AABDC0D29)	0.054	1.075	-0.110	-18.250	-5.493	46.753	89.84	-6.23	-150.45	-1.960	-47.236	49.000	0.19568	0.24225	-0.67599	-0.66779	24.2	13111	100
2025-3-20 10:50:17.864	WT901BLE68(E947F43FF2E9)	0.285	1.076	0.401	-17.822	-41.809	-63.477	96.50	-16.83	167.22	-5.096	-66.346	21.560	0.04672	0.04102	0.67081	0.73895	26.0	13111	100
2025-3-20 10:50:17.946	WT901BLE68(490AABDC0D29)	-0.060	1.472	-0.049	-30.334	2.075	100.525	87.86	-12.94	-152.06	-1.960	-47.236	49.000	0.29132	0.04404	-0.68042	-0.67090	24.2	13111	100
2025-3-20 10:50:17.954	WT901BLE68(E947F43FF2E9)	0.151	0.986	-0.121	-12.146	36.133	-44.006	94.25	-11.89	169.99	-5.096	-66.346	21.560	-0.00610	0.10736	0.71625	0.68942	26.0	13111	100
2025-3-20 10:50:18.68	WT901BLE68(490AABDC0D29)	-0.731	0.745	-0.010	-69.824	57.983	116.699	82.56	-24.15	-148.90	-1.960	-47.236	49.000	0.29132	0.04404	-0.68042	-0.67090	24.2	13111	100
2025-3-20 10:50:18.75	WT901BLE68(E947F43FF2E9)	-0.028	0.995	-0.115	-17.944	3.357	-36.011	92.37	-7.87	171.56	-5.096	-66.346	21.560	-0.00610	0.10736	0.71625	0.68942	26.0	13111	100
2025-3-20 10:50:18.156	WT901BLE68(490AABDC0D29)	-0.070	0.320	-0.075	-52.002	40.344	-101.257	75.08	-24.95	-144.16	-20.776	-49.882	33.222	0.29132	0.04404	-0.68042	-0.67090	24.2	13111	100
2025-3-20 10:50:18.165	WT901BLE68(E947F43FF2E9)	0.025	1.008	-0.104	-18.005	-0.061	-28.625	90.66	-4.24	171.46	5.880	-73.598	18.718	-0.00610	0.10736	0.71625	0.68942	26.0	13111	100
2025-3-20 10:50:18.277	WT901BLE68(490AABDC0D29)	0.195	1.115	-0.250	50.476	3.235	-231.323	79.64	-5.98	-151.13	-20.776	-49.882	33.222	0.29132	0.04404	-0.68042	-0.67090	24.2	13111	100
2025-3-20 10:50:18.284	WT901BLE68(E947F43FF2E9)	-0.064	0.984	-0.146	-17.212	3.296	-24.170	89.48	-1.94	170.11	5.880	-73.598	18.718	-0.00610	0.10736	0.71625	0.68942	26.0	13111	100
2025-3-20 10:50:18.346	WT901BLE68(E947F43FF2E9)	-0.052	0.990	-0.066	-23.743	3.723	-28.259	87.77	0.74	168.39	5.880	-73.598	18.718	0.10211	0.05817	0.67896	0.72464	26.0	13111	100
2025-3-20 10:50:18.367	WT901BLE68(490AABDC0D29)	1.195	1.836	0.243	107.117	54.382	-218.811	89.16	18.36	-149.19	-20.776	-49.882	33.222	0.00131	0.32123	-0.64389	-0.69434	24.2	13111	100
2025-3-20 10:50:18.463	WT901BLE68(E947F43FF2E9)	-0.127	1.009	-0.073	-29.785	-8.606	-39.551	85.53	3.67	166.44	5.880	-73.598	18.718	0.10211	0.05817	0.67896	0.72464	26.0	13111	100
2025-3-20 10:50:18.487	WT901BLE68(490AABDC0D29)	-0.042	1.193	0.070	-8.240	-28.870	60.120	90.16	26.60	-159.92	-20.776	-49.882	33.222	0.00131	0.32123	-0.64389	-0.69434	24.2	13111	100
2025-3-20 10:50:18.553	WT901BLE68(E947F43FF2E9)	-0.199	1.146	-0.134	-46.692	-34.241	-80.566	81.80	9.89	160.88	25.088	-77.420	7.938	0.10211	0.05817	0.67896	0.72464	26.0	13111	100
2025-3-20 10:50:18.606	WT901BLE68(490AABDC0D29)	0.029	1.070	-0.406	21.118	-39.673	94.116	87.09	16.74	-166.83	24.696	-52.528	35.770	0.00131	0.32123	-0.64389	-0.69434	24.2	13111	100
2025-3-20 10:50:18.667	WT901BLE68(490AABDC0D29)	-0.067	1.023	-0.035	2.747	5.371	38.940	86.65	8.54	-171.72	24.696	-52.528	35.770	0.00131	0.32123	-0.64389	-0.69434	24.2	13111	100
2025-3-20 10:50:18.674	WT901BLE68(E947F43FF2E9)	0.161	1.088	-0.065	-30.212	-118.591	-75.012	76.23	14.64	148.39	25.088	-77.420	7.938	0.10211	0.05817	0.67896	0.72464	26.0	13111	100
2025-3-20 10:50:18.757	WT901BLE68(490AABDC0D29)	-0.112	0.996	-0.123	6.836	3.357	6.348	87.63	6.53	-173.69	24.696	-52.528	35.770	-0.00244	0.07101	-0.69058	-0.71967	24.2	13111	100
2025-3-20 10:50:18.765	WT901BLE68(E947F43FF2E9)	-0.024	0.632	-0.120	34.119	107.727	20.264	76.95	15.83	142.92	25.088	-77.420	7.938	0.29651	0.15121	0.63492	0.69711	26.0	13111	100
2025-3-20 10:50:18.877	WT901BLE68(490AABDC0D29)	-0.048	0.970	-0.149	-3.662	1.709	7.751	87.96	5.73	-175.08	24.696	-52.528	35.770	-0.00244	0.07101	-0.69058	-0.71967	24.2	13111	100
2025-3-20 10:50:18.884	WT901BLE68(E947F43FF2E9)	0.010	0.920	0.088	70.374	-103.149	124.573	82.92	6.08	139.70	25.088	-77.420	7.938	0.29651	0.15121	0.63492	0.69711	26.0	13111	100
2025-3-20 10:50:18.966	WT901BLE68(490AABDC0D29)	-0.042	0.992	-0.110	-6.470	-2.563	16.357	87.78	4.14	-176.91	17.640	-57.526	36.456	-0.00244	0.07101	-0.69058	-0.71967	24.2	13111	100
2025-3-20 10:50:18.975	WT901BLE68(E947F43FF2E9)	-0.397	1.349	0.334	82.397	-66.833	129.395	91.52	-7.82	132.40	0.980	-79.184	33.320	0.29651	0.15121	0.63492	0.69711	26.0	13111	100
2025-3-20 10:50:19.64	WT901BLE68(E947F43FF2E9)	0.390	1.092	0.216	20.874	-6.287	50.598	95.45	-15.38	131.45	0.980	-79.184	33.320	0.29651	0.15121	0.63492	0.69711	26.0	13111	100
2025-3-20 10:50:19.87	WT901BLE68(490AABDC0D29)	0.029	0.992	-0.111	-8.545	3.540	11.780	87.50	2.75	-178.43	17.640	-57.526	36.456	-0.00244	0.07101	-0.69058	-0.71967	24.2	13111	100
2025-3-20 10:50:19.147	WT901BLE68(490AABDC0D29)	0.000	1.023	-0.065	-21.484	-4.150	29.724	86.43	0.20	179.98	17.640	-57.526	36.456	0.00168	-0.01328	-0.67920	-0.73376	24.2	13111	100
2025-3-20 10:50:19.154	WT901BLE68(E947F43FF2E9)	-0.045	1.003	-0.025	-2.563	11.658	-8.972	93.26	-14.97	137.33	0.980	-79.184	33.320	0.14584	0.29849	0.65280	0.68073	26.0	13111	100
2025-3-20 10:50:19.266	WT901BLE68(490AABDC0D29)	0.005	1.070	-0.018	-33.936	-12.695	30.762	84.44	-2.63	178.09	17.640	-57.526	36.456	0.00168	-0.01328	-0.67920	-0.73376	24.2	13111	100
2025-3-20 10:50:19.274	WT901BLE68(E947F43FF2E9)	0.093	0.994	-0.134	-2.808	-0.122	-20.142	91.70	-12.19	143.38	0.980	-79.184	33.320	0.14584	0.29849	0.65280	0.68073	26.0	13111	100
2025-3-20 10:50:19.357	WT901BLE68(490AABDC0D29)	0.099	1.183	-0.032	-43.640	-18.311	64.209	81.38	-6.90	175.87	4.900	-59.682	28.322	0.00168	-0.01328	-0.67920	-0.73376	24.2	13111	100
2025-3-20 10:50:19.365	WT901BLE68(E947F43FF2E9)	0.052	0.984	-0.119	-2.686	3.113	-14.160	91.70	-9.88	144.83	0.980	-79.184	33.320	0.14584	0.29849	0.65280	0.68073	26.0	13111	100
2025-3-20 10:50:19.475	WT901BLE68(490AABDC0D29)	-0.498	1.318	-0.133	-73.181	-10.742	100.891	76.99	-14.79	175.18	4.900	-59.682	28.322	0.00168	-0.01328	-0.67920	-0.73376	24.2	13111	100
2025-3-20 10:50:19.484	WT901BLE68(E947F43FF2E9)	-0.018	0.986	-0.104	-7.996	-0.610	-18.372	91.24	-7.83	147.06	-2.646	-76.832	35.084	0.14584	0.29849	0.65280	0.68073	26.0	13111	100
2025-3-20 10:50:19.566	WT901BLE68(490AABDC0D29)	-0.113	0.315	-0.179	-19.653	-93.201	-17.944	72.30	-20.12	175.83	4.900	-59.682	28.322	0.00485	-0.16058	-0.59741	-0.78561	24.2	13111	100
2025-3-20 10:50:19.574	WT901BLE68(E947F43FF2E9)	-0.037	1.019	-0.080	-6.348	-4.272	-20.752	90.75	-5.54	148.67	-2.646	-76.832	35.084	0.14584	0.29849	0.65280	0.68073	26.0	13111	100
2025-3-20 10:50:19.686	WT901BLE68(490AABDC0D29)	-0.146	0.851	-0.202	49.988	-13.550	-160.767	77.78	-10.11	168.12	4.900	-59.682	28.322	0.00485	-0.16058	-0.59741	-0.78561	24.2	13111	100
2025-3-20 10:50:19.694	WT901BLE68(E947F43FF2E9)	-0.062	0.974	-0.105	-8.423	1.404	-18.494	90.32	-3.22	150.02	-2.646	-76.832	35.084	0.16318	0.20126	0.67969	0.68613	26.0	13111	100
2025-3-20 10:50:19.755	WT901BLE68(E947F43FF2E9)	-0.100	0.993	-0.089	-10.925	-0.061	-22.522	89.73	-1.01	151.52	5.488	-79.576	32.242	0.16318	0.20126	0.67969	0.68613	26.0	13111	100
2025-3-20 10:50:19.777	WT901BLE68(490AABDC0D29)	1.078	1.467	-0.010	84.839	-6.470	-196.228	86.30	8.41	166.28	24.402	-47.236	34.594	0.00485	-0.16058	-0.59741	-0.78561	24.2	13111	100
2025-3-20 10:50:19.874	WT901BLE68(E947F43FF2E9)	-0.142	0.989	-0.083	-19.104	-3.784	-28.076	88.50	1.68	152.92	5.488	-79.576	32.242	0.16318	0.20126	0.67969	0.68613	26.0	13111	100
2025-3-20 10:50:19.906	WT901BLE68(490AABDC0D29)	0.262	1.382	0.390	28.015	67.017	-75.073	94.22	23.75	169.15	24.402	-47.236	34.594	0.00485	-0.16058	-0.59741	-0.78561	24.2	13111	100
2025-3-20 10:50:19.957	WT901BLE68(490AABDC0D29)	-0.045	1.073	-0.074	3.662	-64.331	72.205	92.37	17.92	167.39	24.402	-47.236	34.594	-0.18042	-0.01904	-0.71817	-0.67172	24.2	13111	100
2025-3-20 10:50:19.964	WT901BLE68(E947F43FF2E9)	-0.311	1.033	-0.042	-34.424	-4.883	-52.917	86.19	5.76	153.63	5.488	-79.576	32.242	0.24152	0.07986	0.65613	0.71042	26.0	13111	100
2025-3-20 10:50:20.76	WT901BLE68(490AABDC0D29)	-0.088	1.061	0.006	-5.127	-10.376	48.706	91.35	10.72	162.86	24.402	-47.236	34.594	-0.18042	-0.01904	-0.71817	-0.67172	24.2	13111	100
2025-3-20 10:50:20.84	WT901BLE68(E947F43FF2E9)	-0.067	2.821	-0.182	-39.063	-43.823	-89.050	82.38	12.14	152.51	5.488	-79.576	32.242	0.24152	0.07986	0.65613	0.71042	26.0	13111	100
2025-3-20 10:50:20.167	WT901BLE68(490AABDC0D29)	-0.068	0.970	-0.146	-1.770	0.977	21.973	91.41	7.24	162.21	22.442	-44.786	42.532	-0.18042	-0.01904	-0.71817	-0.67172	24.2	13111	100
2025-3-20 10:50:20.174	WT901BLE68(E947F43FF2E9)	-0.013	0.794	0.191	-36.255	-62.622	-82.825	76.33	19.87	142.96	5.488	-79.576	32.242	0.24152	0.07986	0.65613	0.71042	26.0	13111	100
2025-3-20 10:50:20.286	WT901BLE68(490AABDC0D29)	-0.044	0.985	-0.186	-3.967	1.892	17.151	91.55	5.19	161.82	22.442	-44.786	42.532	-0.18042	-0.01904	-0.71817	-0.67172	24.2	13111	100
2025-3-20 10:50:20.294	WT901BLE68(E947F43FF2E9)	-0.303	0.686	0.115	-10.864	39.612	78.918	77.39	19.23	148.30	28.322	-75.264	17.934	0.24152	0.07986	0.65613	0.71042	26.0	13111	100
2025-3-20 10:50:20.355	WT901BLE68(E947F43FF2E9)	-0.343	1.045	0.316	-8.362	88.013	136.475	78.80	7.32	155.59	28.322	-75.264	17.934	0.24152	0.07986	0.65613	0.71042	26.0	13111	100
2025-3-20 10:50:20.377	WT901BLE68(490AABDC0D29)	-0.017	0.988	-0.144	-9.277	-1.465	18.738	91.24	3.39	161.43	22.442	-44.786	42.532	-0.12885	-0.10519	-0.70471	-0.68964	24.2	13111	100
2025-3-20 10:50:20.473	WT901BLE68(E947F43FF2E9)	-0.909	1.191	0.104	-13.428	66.406	124.634	77.30	-3.73	167.21	28.322	-75.264	17.934	0.05444	0.09464	0.61615	0.77997	26.0	13111	100
2025-3-20 10:50:20.497	WT901BLE68(490AABDC0D29)	0.002	0.972	-0.140	-9.155	-4.761	15.930	90.75	1.59	160.69	22.442	-44.786	42.532	-0.12885	-0.10519	-0.70471	-0.68964	24.2	13111	100
2025-3-20 10:50:20.557	WT901BLE68(490AABDC0D29)	0.061	1.006	-0.152	-10.742	-3.906	14.893	90.23	0.19	159.75	16.758	-47.922	40.474	-0.12885	-0.10519	-0.70471	-0.68964	24.2	13111	100
2025-3-20 10:50:20.564	WT901BLE68(E947F43FF2E9)	0.240	1.111	0.012	-4.700	79.956	6.287	75.25	-7.45	177.02	-9.408	-63.798	7.056	0.05444	0.09464	0.61615	0.77997	26.0	13111	100
2025-3-20 10:50:20.676	WT901BLE68(490AABDC0D29)	0.051	0.994	-0.109	-21.057	-4.028	13.672	88.89	-1.44	159.07	16.758	-47.922	40.474	-0.12885	-0.10519	-0.70471	-0.68964	24.2	13111	100
2025-3-20 10:50:20.684	WT901BLE68(E947F43FF2E9)	0.029	0.977	-0.132	16.724	55.664	-8.362	74.37	-2.13	-172.77	-9.408	-63.798	7.056	0.05444	0.09464	0.61615	0.77997	26.0	13111	100
2025-3-20 10:50:20.767	WT901BLE68(490AABDC0D29)	0.025	0.986	-0.043	-21.423	-2.258	-2.075	86.99	-1.90	158.44	16.758	-47.922	40.474	-0.12830	-0.14038	-0.66736	-0.71997	24.2	13111	100
2025-3-20 10:50:20.774	WT901BLE68(E947F43FF2E9)	-0.019	0.985	0.192	18.738	4.272	-13.916	76.41	-0.25	-169.77	-9.408	-63.798	7.056	0.05444	0.09464	0.61615	0.77997	26.0	13111	100
2025-3-20 10:50:20.886	WT901BLE68(490AABDC0D29)	0.041	1.026	-0.016	-20.203	3.662	-2.075	85.34	-1.66	158.09	16.758	-47.922	40.474	-0.12830	-0.14038	-0.66736	-0.71997	24.2	13111	100
2025-3-20 10:50:20.895	WT901BLE68(E947F43FF2E9)	-0.007	0.990	0.118	11.597	4.456	-2.991	77.98	0.63	-167.17	-9.408	-63.798	7.056	-0.08331	-0.07455	0.62476	0.77271	26.0	13111	100
2025-3-20 10:50:20.954	WT901BLE68(E947F43FF2E9)	-0.005	1.009	0.099	11.414	8.179	2.808	79.55	0.70	-164.73	-9.408	-63.798	7.056	-0.08331	-0.07455	0.62476	0.77271	26.0	13111	100
2025-3-20 10:50:20.976	WT901BLE68(490AABDC0D29)	0.029	0.988	-0.010	-18.250	2.258	1.709	83.93	-1.71	158.14	14.994	-48.118	34.202	-0.12830	-0.14038	-0.66736	-0.71997	24.2	13111	100
2025-3-20 10:50:21.95	WT901BLE68(490AABDC0D29)	0.037	1.000	0.040	-18.616	2.258	3.784	82.56	-1.93	158.13	14.994	-48.118	34.202	-0.12830	-0.14038	-0.66736	-0.71997	24.2	13111	100
2025-3-20 10:50:21.108	WT901BLE68(E947F43FF2E9)	-0.003	1.003	0.058	11.475	4.028	-1.404	81.04	0.87	-163.14	-9.016	-63.896	9.016	-0.08331	-0.07455	0.62476	0.77271	26.0	13111	100
2025-3-20 10:50:21.163	WT901BLE68(E947F43FF2E9)	-0.037	0.996	0.028	12.878	1.587	-4.761	82.53	1.23	-161.86	-9.016	-63.896	9.016	-0.08331	-0.07455	0.62476	0.77271	26.0	13111	100
2025-3-20 10:50:21.187	WT901BLE68(490AABDC0D29)	0.098	0.982	0.055	-25.452	-1.587	-1.770	80.84	-2.11	158.03	14.994	-48.118	34.202	-0.13913	-0.13699	-0.62338	-0.75708	24.2	13111	100
2025-3-20 10:50:21.283	WT901BLE68(E947F43FF2E9)	-0.009	0.996	0.037	15.503	20.996	3.540	84.07	1.83	-160.07	-9.016	-63.896	9.016	-0.12079	-0.13046	0.65857	0.73114	26.0	13111	100
2025-3-20 10:50:21.313	WT901BLE68(490AABDC0D29)	0.100	0.975	0.074	-20.203	6.653	-7.813	78.90	-1.78	157.53	14.994	-48.118	34.202	-0.13913	-0.13699	-0.62338	-0.75708	24.2	13111	100
2025-3-20 10:50:21.365	WT901BLE68(490AABDC0D29)	0.095	0.937	0.081	-7.019	19.775	-26.611	77.93	-0.17	157.93	17.052	-45.962	30.380	-0.13913	-0.13699	-0.62338	-0.75708	24.2	13111	100
2025-3-20 10:50:21.373	WT901BLE68(E947F43FF2E9)	0.027	0.991	-0.034	13.123	11.597	6.287	85.83	1.43	-157.33	-9.702	-63.014	11.270	-0.12079	-0.13046	0.65857	0.73114	26.0	13111	100
2025-3-20 10:50:21.486	WT901BLE68(490AABDC0D29)	0.284	0.958	-0.013	8.545	49.561	-41.992	78.61	3.69	160.20	17.052	-45.962	30.380	-0.13913	-0.13699	-0.62338	-0.75708	24.2	13111	100
2025-3-20 10:50:21.494	WT901BLE68(E947F43FF2E9)	-0.036	0.991	-0.046	10.742	9.399	-2.014	87.22	1.14	-155.14	-9.702	-63.014	11.270	-0.12079	-0.13046	0.65857	0.73114	26.0	13111	100
2025-3-20 10:50:21.577	WT901BLE68(490AABDC0D29)	-0.132	1.032	0.044	-3.174	134.766	1.831	80.32	6.99	169.37	17.052	-45.962	30.380	-0.05020	0.03848	-0.64929	-0.75784	24.2	13111	100
2025-3-20 10:50:21.584	WT901BLE68(E947F43FF2E9)	-0.048	0.994	-0.060	6.531	9.583	-11.169	88.47	1.91	-152.66	-9.702	-63.014	11.270	-0.12079	-0.13046	0.65857	0.73114	26.0	13111	100
2025-3-20 10:50:21.696	WT901BLE68(490AABDC0D29)	-0.402	1.030	0.181	-20.996	172.363	19.470	81.17	7.06	-176.13	17.052	-45.962	30.380	-0.05020	0.03848	-0.64929	-0.75784	24.2	13111	100
2025-3-20 10:50:21.709	WT901BLE68(E947F43FF2E9)	-0.046	0.994	-0.069	1.160	6.226	-5.737	89.20	2.76	-150.49	-9.702	-63.014	11.270	-0.16531	-0.19617	0.67435	0.69235	26.0	13111	100
2025-3-20 10:50:21.765	WT901BLE68(E947F43FF2E9)	-0.006	1.001	-0.084	-1.770	9.033	-2.563	89.48	3.18	-148.27	-9.702	-63.014	11.270	-0.16531	-0.19617	0.67435	0.69235	26.0	13111	100
2025-3-20 10:50:21.787	WT901BLE68(490AABDC0D29)	-0.044	0.967	0.136	-34.668	150.940	9.888	80.43	7.65	-160.70	10.780	-50.470	56.546	-0.05020	0.03848	-0.64929	-0.75784	24.2	13111	100
2025-3-20 10:50:21.883	WT901BLE68(E947F43FF2E9)	-0.039	0.990	-0.058	-4.883	32.288	11.414	89.45	3.00	-145.40	-8.820	-63.406	10.584	-0.16531	-0.19617	0.67435	0.69235	26.0	13111	100
2025-3-20 10:50:21.919	WT901BLE68(490AABDC0D29)	0.060	1.008	-0.077	-27.039	245.789	-37.231	81.19	12.52	-145.88	10.780	-50.470	56.546	-0.05020	0.03848	-0.64929	-0.75784	24.2	13111	100
2025-3-20 10:50:21.967	WT901BLE68(490AABDC0D29)	-0.089	0.957	-0.612	-4.028	132.141	57.312	84.55	12.77	-127.63	10.780	-50.470	56.546	0.28394	0.40518	-0.57397	-0.65240	24.2	13111	100
2025-3-20 10:50:21.974	WT901BLE68(E947F43FF2E9)	0.005	1.016	-0.059	-22.278	13.489	2.380	88.48	2.61	-141.76	-8.820	-63.406	10.584	-0.16531	-0.19617	0.67435	0.69235	26.0	13111	100
2025-3-20 10:50:22.86	WT901BLE68(490AABDC0D29)	-0.055	1.144	0.525	23.132	20.447	3.357	89.85	11.69	-121.43	10.780	-50.470	56.546	0.28394	0.40518	-0.57397	-0.65240	24.2	13111	100
2025-3-20 10:50:22.94	WT901BLE68(E947F43FF2E9)	0.145	1.008	-0.039	-28.564	24.658	15.503	86.42	1.60	-138.07	-8.820	-63.406	10.584	-0.25958	-0.25699	0.63104	0.68427	26.0	13111	100
2025-3-20 10:50:22.177	WT901BLE68(490AABDC0D29)	-0.070	1.018	-0.246	28.564	-7.263	-6.348	92.33	11.67	-126.86	-9.114	-48.706	70.168	0.28394	0.40518	-0.57397	-0.65240	24.2	13111	100
2025-3-20 10:50:22.185	WT901BLE68(E947F43FF2E9)	-0.024	1.091	-0.064	-51.147	59.204	-18.494	83.15	1.59	-132.69	-8.820	-63.406	10.584	-0.25958	-0.25699	0.63104	0.68427	26.0	13111	100
2025-3-20 10:50:22.296	WT901BLE68(490AABDC0D29)	-0.127	1.030	-0.085	8.850	0.916	11.353	94.11	11.08	-129.96	-9.114	-48.706	70.168	0.28394	0.40518	-0.57397	-0.65240	24.2	13111	100
2025-3-20 10:50:22.305	WT901BLE68(E947F43FF2E9)	-0.053	0.912	-0.640	-24.292	369.019	-23.071	81.93	8.47	-104.58	-7.056	-63.210	-6.566	-0.25958	-0.25699	0.63104	0.68427	26.0	13111	100
2025-3-20 10:50:22.365	WT901BLE68(E947F43FF2E9)	-0.102	0.986	-0.090	28.503	74.951	23.132	87.90	11.09	-79.93	-7.056	-63.210	-6.566	-0.25958	-0.25699	0.63104	0.68427	26.0	13111	100
2025-3-20 10:50:22.385	WT901BLE68(490AABDC0D29)	-0.133	0.995	-0.119	-2.014	8.423	-6.531	94.60	10.61	-131.36	-9.114	-48.706	70.168	0.21140	0.35236	-0.64139	-0.64783	24.2	13111	100
2025-3-20 10:50:22.505	WT901BLE68(490AABDC0D29)	-0.282	0.980	-0.097	-12.695	8.179	4.333	93.83	10.55	-132.74	-9.114	-48.706	70.168	0.21140	0.35236	-0.64139	-0.64783	24.2	13111	100
2025-3-20 10:50:22.515	WT901BLE68(E947F43FF2E9)	-1.067	0.908	0.110	44.495	182.861	48.279	94.45	7.01	-62.96	-7.056	-63.210	-6.566	-0.56021	-0.65436	0.34097	0.37631	26.0	13111	100
2025-3-20 10:50:22.575	WT901BLE68(E947F43FF2E9)	-0.126	1.230	-0.242	-3.296	28.809	-29.480	97.15	4.49	-51.21	-7.056	-63.210	-6.566	-0.56021	-0.65436	0.34097	0.37631	26.0	13111	100
2025-3-20 10:50:22.603	WT901BLE68(490AABDC0D29)	-0.070	1.077	-0.069	-33.875	-0.366	48.706	92.36	8.63	-134.14	-14.994	-49.588	68.208	0.21140	0.35236	-0.64139	-0.64783	24.2	13111	100
2025-3-20 10:50:22.701	WT901BLE68(E947F43FF2E9)	-0.067	1.077	-0.030	2.136	23.926	-26.611	96.74	7.75	-50.41	0.784	-66.934	-16.856	-0.56021	-0.65436	0.34097	0.37631	26.0	13111	100
2025-3-20 10:50:22.718	WT901BLE68(490AABDC0D29)	-0.498	1.219	-0.150	-43.213	129.028	76.538	89.60	2.40	-131.59	-14.994	-49.588	68.208	0.21140	0.35236	-0.64139	-0.64783	24.2	13111	100
2025-3-20 10:50:22.777	WT901BLE68(490AABDC0D29)	-0.322	0.654	0.056	1.343	50.598	-2.136	86.74	-1.64	-120.94	-14.994	-49.588	68.208	0.33456	0.36731	-0.59500	-0.63165	24.2	13111	100
2025-3-20 10:50:22.785	WT901BLE68(E947F43FF2E9)	-0.063	0.972	-0.088	0.793	9.888	-14.282	96.38	9.42	-47.92	0.784	-66.934	-16.856	-0.56021	-0.65436	0.34097	0.37631	26.0	13111	100
2025-3-20 10:50:22.897	WT901BLE68(490AABDC0D29)	-0.182	0.925	0.038	36.926	10.071	-102.661	89.31	5.41	-120.59	-14.994	-49.588	68.208	0.33456	0.36731	-0.59500	-0.63165	24.2	13111	100
2025-3-20 10:50:22.904	WT901BLE68(E947F43FF2E9)	-0.069	0.993	-0.065	-6.897	6.165	-11.047	95.99	10.12	-44.92	0.784	-66.934	-16.856	-0.59381	-0.70746	0.22174	0.31238	26.0	13111	100
2025-3-20 10:50:22.987	WT901BLE68(490AABDC0D29)	0.271	1.131	0.096	40.405	18.433	-126.953	93.63	17.80	-120.67	1.176	-48.216	72.422	0.33456	0.36731	-0.59500	-0.63165	24.2	13111	100
2025-3-20 10:50:23.4	WT901BLE68(E947F43FF2E9)	-0.141	1.001	-0.027	-13.916	0.366	-21.545	94.93	11.18	-41.76	0.784	-66.934	-16.856	-0.59381	-0.70746	0.22174	0.31238	26.0	13111	100
2025-3-20 10:50:23.105	WT901BLE68(490AABDC0D29)	-5.815	1.162	0.210	12.817	0.061	-65.491	96.33	28.09	-122.39	1.176	-48.216	72.422	0.33456	0.36731	-0.59500	-0.63165	24.2	13111	100
2025-3-20 10:50:23.114	WT901BLE68(E947F43FF2E9)	-0.066	0.982	-0.022	-19.287	5.005	-21.362	93.39	13.06	-38.63	7.350	-67.620	-19.502	-0.59381	-0.70746	0.22174	0.31238	26.0	13111	100
2025-3-20 10:50:23.175	WT901BLE68(E947F43FF2E9)	-0.159	1.018	-0.018	-24.902	-16.052	-28.503	91.17	15.12	-37.30	7.350	-67.620	-19.502	-0.59381	-0.70746	0.22174	0.31238	26.0	13111	100
2025-3-20 10:50:23.225	WT901BLE68(490AABDC0D29)	-0.223	6.265	-4.056	-7.324	71.472	51.270	93.96	25.36	-126.34	1.176	-48.216	72.422	0.19012	0.44107	-0.58810	-0.65063	24.2	13111	100
2025-3-20 10:50:23.304	WT901BLE68(E947F43FF2E9)	0.020	1.351	-0.051	-45.288	-17.822	-48.523	87.01	18.53	-36.69	7.350	-67.620	-19.502	-0.64563	-0.67929	0.09854	0.33450	26.0	13111	100
2025-3-20 10:50:23.317	WT901BLE68(490AABDC0D29)	-0.083	0.997	-0.362	10.742	5.066	62.866	95.22	18.86	-125.32	1.176	-48.216	72.422	0.19012	0.44107	-0.58810	-0.65063	24.2	13111	100
2025-3-20 10:50:23.377	WT901BLE68(490AABDC0D29)	-0.142	0.977	-0.085	11.597	-0.305	23.376	95.34	14.66	-129.33	-6.958	-45.080	74.676	0.19012	0.44107	-0.58810	-0.65063	24.2	13111	100
2025-3-20 10:50:23.385	WT901BLE68(E947F43FF2E9)	-0.373	1.368	-0.267	-54.504	-91.309	-123.230	79.80	27.07	-40.73	7.350	-67.620	-19.502	-0.64563	-0.67929	0.09854	0.33450	26.0	13111	100
2025-3-20 10:50:23.500	WT901BLE68(490AABDC0D29)	-0.120	0.983	-0.142	-0.183	-6.348	16.907	96.12	12.62	-132.12	-6.958	-45.080	74.676	0.19012	0.44107	-0.58810	-0.65063	24.2	13111	100
2025-3-20 10:50:23.504	WT901BLE68(E947F43FF2E9)	-0.386	0.856	-0.277	25.635	117.615	-31.677	80.04	35.34	-38.90	22.736	-65.758	-24.696	-0.64563	-0.67929	0.09854	0.33450	26.0	13111	100
2025-3-20 10:50:23.587	WT901BLE68(490AABDC0D29)	-0.116	0.977	-0.149	-1.648	-4.700	14.893	95.91	10.96	-134.89	-6.958	-45.080	74.676	0.19052	0.32071	-0.66782	-0.64401	24.2	13111	100
2025-3-20 10:50:23.608	WT901BLE68(E947F43FF2E9)	-0.401	0.693	0.055	67.566	49.622	57.556	89.41	33.56	-30.29	22.736	-65.758	-24.696	-0.64563	-0.67929	0.09854	0.33450	26.0	13111	100
2025-3-20 10:50:23.706	WT901BLE68(490AABDC0D29)	-0.034	0.977	-0.149	-3.662	-3.723	23.438	95.65	8.88	-137.19	-6.958	-45.080	74.676	0.19052	0.32071	-0.66782	-0.64401	24.2	13111	100
2025-3-20 10:50:23.714	WT901BLE68(E947F43FF2E9)	-0.355	0.729	0.092	74.280	56.580	103.149	99.56	24.18	-23.40	22.736	-65.758	-24.696	-0.57910	-0.77167	0.04010	0.25967	26.0	13111	100
2025-3-20 10:50:23.775	WT901BLE68(E947F43FF2E9)	-0.453	0.874	0.200	37.842	51.453	119.080	105.94	12.20	-23.23	22.736	-65.758	-24.696	-0.57910	-0.77167	0.04010	0.25967	26.0	13111	100
2025-3-20 10:50:23.808	WT901BLE68(490AABDC0D29)	0.006	0.986	-0.126	-4.700	-2.380	26.672	95.26	6.17	-139.40	-6.958	-45.080	74.676	0.19052	0.32071	-0.66782	-0.64401	24.2	13111	100
2025-3-20 10:50:23.915	WT901BLE68(490AABDC0D29)	0.039	0.984	-0.124	-5.737	-1.892	26.611	94.85	3.43	-141.49	-13.524	-44.688	74.480	0.19052	0.32071	-0.66782	-0.64401	24.2	13111	100
2025-3-20 10:50:23.923	WT901BLE68(E947F43FF2E9)	-0.273	0.960	-0.002	5.310	36.255	80.505	107.74	2.31	-25.21	0.098	-68.992	-6.174	-0.57910	-0.77167	0.04010	0.25967	26.0	13111	100
2025-3-20 10:50:23.985	WT901BLE68(E947F43FF2E9)	0.107	0.794	0.030	-28.137	27.588	16.663	106.42	-1.17	-27.49	0.098	-68.992	-6.174	-0.57910	-0.77167	0.04010	0.25967	26.0	13111	100
2025-3-20 10:50:24.9	WT901BLE68(490AABDC0D29)	0.112	0.996	-0.127	-8.484	-0.610	27.649	94.28	0.77	-143.26	-13.524	-44.688	74.480	0.21637	0.21143	-0.69849	-0.64844	24.2	13111	100
2025-3-20 10:50:24.106	WT901BLE68(E947F43FF2E9)	0.025	0.738	-0.126	-11.414	-18.433	-60.181	103.96	2.43	-27.77	0.098	-68.992	-6.174	-0.59338	-0.76736	0.17175	0.17157	26.0	13111	100
2025-3-20 10:50:24.126	WT901BLE68(490AABDC0D29)	0.166	1.039	-0.125	-10.620	-4.578	34.607	93.54	-2.48	-145.39	-13.524	-44.688	74.480	0.21637	0.21143	-0.69849	-0.64844	24.2	13111	100
2025-3-20 10:50:24.187	WT901BLE68(490AABDC0D29)	0.170	1.037	-0.070	-20.447	-9.644	31.799	92.27	-6.00	-146.94	-22.932	-44.884	71.638	0.21637	0.21143	-0.69849	-0.64844	24.2	13111	100
2025-3-20 10:50:24.195	WT901BLE68(E947F43FF2E9)	-0.059	0.974	-0.180	-19.348	4.150	-46.509	102.59	7.21	-25.45	0.098	-68.992	-6.174	-0.59338	-0.76736	0.17175	0.17157	26.0	13111	100
2025-3-20 10:50:24.309	WT901BLE68(490AABDC0D29)	0.133	1.239	-0.010	-21.057	1.404	32.166	90.70	-9.21	-149.13	-22.932	-44.884	71.638	0.21637	0.21143	-0.69849	-0.64844	24.2	13111	100
2025-3-20 10:50:24.314	WT901BLE68(E947F43FF2E9)	-0.172	0.974	-0.077	-15.930	6.531	-36.194	100.60	11.31	-23.51	5.782	-68.698	-12.348	-0.59338	-0.76736	0.17175	0.17157	26.0	13111	100
2025-3-20 10:50:24.410	WT901BLE68(490AABDC0D29)	0.390	1.115	-0.149	-26.245	7.080	13.916	88.04	-11.76	-149.72	-22.932	-44.884	71.638	0.28073	0.12891	-0.66937	-0.67557	24.2	13111	100
2025-3-20 10:50:24.410	WT901BLE68(E947F43FF2E9)	-0.156	0.953	-0.095	-11.780	10.071	-10.071	99.45	12.86	-20.56	5.782	-68.698	-12.348	-0.59338	-0.76736	0.17175	0.17157	26.0	13111	100
2025-3-20 10:50:24.515	WT901BLE68(490AABDC0D29)	1.017	1.018	-0.025	-13.916	68.726	5.859	85.74	-11.63	-145.39	-22.932	-44.884	71.638	0.28073	0.12891	-0.66937	-0.67557	24.2	13111	100
2025-3-20 10:50:24.524	WT901BLE68(E947F43FF2E9)	-0.153	0.972	-0.095	-2.380	5.310	4.456	98.71	12.73	-19.08	5.782	-68.698	-12.348	-0.62604	-0.75513	0.05307	0.18689	26.0	13111	100
2025-3-20 10:50:24.585	WT901BLE68(E947F43FF2E9)	-0.132	0.986	-0.067	-1.526	0.610	10.864	98.38	11.77	-18.37	5.782	-68.698	-12.348	-0.62604	-0.75513	0.05307	0.18689	26.0	13111	100
2025-3-20 10:50:24.610	WT901BLE68(490AABDC0D29)	0.170	1.206	-0.103	-27.466	40.710	59.387	83.95	-14.10	-143.10	-38.808	-43.022	56.448	0.28073	0.12891	-0.66937	-0.67557	24.2	13111	100
2025-3-20 10:50:24.708	WT901BLE68(E947F43FF2E9)	-0.079	0.982	-0.104	0.061	-0.549	13.611	98.15	10.43	-17.88	7.154	-68.404	-14.504	-0.62604	-0.75513	0.05307	0.18689	26.0	13111	100
2025-3-20 10:50:24.728	WT901BLE68(490AABDC0D29)	0.271	1.448	0.267	-61.951	26.123	137.512	76.71	-23.31	-134.11	-38.808	-43.022	56.448	0.28073	0.12891	-0.66937	-0.67557	24.2	13111	100
2025-3-20 10:50:24.787	WT901BLE68(490AABDC0D29)	0.351	0.805	0.139	-54.077	-6.897	69.702	70.41	-33.18	-132.56	-38.808	-43.022	56.448	0.45157	-0.01532	-0.59692	-0.66287	24.2	13111	100
2025-3-20 10:50:24.795	WT901BLE68(E947F43FF2E9)	-0.041	0.994	-0.090	-0.916	-1.831	12.085	97.95	8.97	-17.35	7.154	-68.404	-14.504	-0.62604	-0.75513	0.05307	0.18689	26.0	13111	100
2025-3-20 10:50:24.912	WT901BLE68(490AABDC0D29)	0.363	0.425	-0.021	-1.587	-62.744	-50.598	70.80	-33.41	-137.41	-38.808	-43.022	56.448	0.45157	-0.01532	-0.59692	-0.66287	24.2	13111	100
2025-3-20 10:50:24.914	WT901BLE68(E947F43FF2E9)	-0.038	0.984	-0.100	-3.418	0.183	10.620	97.60	7.66	-16.63	7.154	-68.404	-14.504	-0.64417	-0.74863	0.06516	0.14236	26.0	13111	100
2025-3-20 10:50:24.997	WT901BLE68(490AABDC0D29)	0.546	0.376	-0.081	45.837	-52.612	-118.469	77.81	-25.80	-145.79	-35.966	-40.376	56.742	0.45157	-0.01532	-0.59692	-0.66287	24.2	13111	100
2025-3-20 10:50:25.13	WT901BLE68(E947F43FF2E9)	-0.103	0.988	-0.099	-3.296	-1.221	6.653	97.15	6.58	-15.80	7.154	-68.404	-14.504	-0.64417	-0.74863	0.06516	0.14236	26.0	13111	100
2025-3-20 10:50:25.115	WT901BLE68(490AABDC0D29)	0.500	0.621	0.098	45.654	-62.622	-134.705	86.52	-14.81	-155.63	-35.966	-40.376	56.742	0.45157	-0.01532	-0.59692	-0.66287	24.2	13111	100
2025-3-20 10:50:25.124	WT901BLE68(E947F43FF2E9)	-0.056	0.970	-0.065	-1.404	-0.366	0.183	96.69	6.25	-14.89	4.018	-67.620	-14.896	-0.64417	-0.74863	0.06516	0.14236	26.0	13111	100
2025-3-20 10:50:25.184	WT901BLE68(E947F43FF2E9)	-0.018	1.000	-0.094	-0.732	-3.784	-1.831	96.56	6.21	-14.27	4.018	-67.620	-14.896	-0.64417	-0.74863	0.06516	0.14236	26.0	13111	100
2025-3-20 10:50:25.214	WT901BLE68(490AABDC0D29)	1.232	0.700	0.134	22.339	-112.915	-94.055	90.28	-5.23	-165.42	-35.966	-40.376	56.742	0.45157	-0.01532	-0.59692	-0.66287	24.2	13111	100
2025-3-20 10:50:25.326	WT901BLE68(490AABDC0D29)	0.009	1.311	-0.547	-2.563	-45.410	-44.739	89.22	-0.49	-171.91	-35.966	-40.376	56.742	0.05319	0.04648	-0.70071	-0.70984	24.2	13111	100
2025-3-20 10:50:25.334	WT901BLE68(E947F43FF2E9)	-0.106	0.995	-0.107	-3.357	-5.188	-11.475	96.30	6.53	-13.53	4.018	-67.620	-14.896	-0.65768	-0.74203	0.04422	0.12158	26.0	13111	100
2025-3-20 10:50:25.394	WT901BLE68(E947F43FF2E9)	-0.103	0.998	-0.058	-4.761	-7.874	-17.761	95.72	7.92	-12.78	4.018	-67.620	-14.896	-0.65768	-0.74203	0.04422	0.12158	26.0	13111	100
2025-3-20 10:50:25.417	WT901BLE68(490AABDC0D29)	0.051	0.789	0.031	-12.695	4.333	20.020	86.84	-3.27	-171.42	-12.936	-44.296	63.406	0.05319	0.04648	-0.70071	-0.70984	24.2	13111	100
2025-3-20 10:50:25.513	WT901BLE68(E947F43FF2E9)	-0.194	0.980	-0.088	-9.583	-1.831	-23.376	94.95	9.74	-12.26	7.056	-68.110	-15.484	-0.65768	-0.74203	0.04422	0.12158	26.0	13111	100
2025-3-20 10:50:25.538	WT901BLE68(490AABDC0D29)	0.178	0.969	-0.003	3.479	-0.488	29.663	86.76	-5.95	-171.79	-12.936	-44.296	63.406	0.05319	0.04648	-0.70071	-0.70984	24.2	13111	100
2025-3-20 10:50:25.597	WT901BLE68(490AABDC0D29)	0.145	0.980	-0.010	-6.653	-7.446	10.986	87.14	-8.08	-172.71	-12.936	-44.296	63.406	0.09082	-0.01566	-0.68787	-0.71988	24.2	13111	100
2025-3-20 10:50:25.613	WT901BLE68(E947F43FF2E9)	-0.084	1.001	-0.075	-10.315	-17.517	-7.324	93.76	11.37	-12.55	7.056	-68.110	-15.484	-0.65768	-0.74203	0.04422	0.12158	26.0	13111	100
2025-3-20 10:50:25.715	WT901BLE68(490AABDC0D29)	0.104	0.989	0.003	3.052	-8.118	-3.540	86.96	-8.45	-173.77	-12.936	-44.296	63.406	0.09082	-0.01566	-0.68787	-0.71988	24.2	13111	100
2025-3-20 10:50:25.724	WT901BLE68(E947F43FF2E9)	-0.035	1.342	0.102	-17.578	-26.489	2.747	92.02	11.27	-13.75	7.056	-68.110	-15.484	-0.68085	-0.71552	0.02002	0.15485	26.0	13111	100
2025-3-20 10:50:25.816	WT901BLE68(490AABDC0D29)	0.081	1.010	-0.028	21.729	-7.263	-17.151	88.28	-7.35	-174.07	-12.838	-42.728	65.954	0.09082	-0.01566	-0.68787	-0.71988	24.2	13111	100
2025-3-20 10:50:25.816	WT901BLE68(E947F43FF2E9)	-0.793	1.140	0.141	-17.822	-14.221	-9.827	89.70	11.37	-13.07	7.056	-68.110	-15.484	-0.68085	-0.71552	0.02002	0.15485	26.0	13111	100
2025-3-20 10:50:25.925	WT901BLE68(490AABDC0D29)	0.087	0.986	-0.102	17.395	4.822	-13.916	90.59	-5.78	-174.35	-12.838	-42.728	65.954	0.09082	-0.01566	-0.68787	-0.71988	24.2	13111	100
2025-3-20 10:50:25.934	WT901BLE68(E947F43FF2E9)	-0.377	1.276	-0.151	-45.288	61.218	-111.450	86.70	14.92	-10.53	14.602	-65.758	-20.678	-0.68085	-0.71552	0.02002	0.15485	26.0	13111	100
2025-3-20 10:50:25.994	WT901BLE68(E947F43FF2E9)	0.105	1.459	0.031	-33.508	-111.511	-175.476	81.43	30.16	-14.02	14.602	-65.758	-20.678	-0.68085	-0.71552	0.02002	0.15485	26.0	13111	100
2025-3-20 10:50:26.17	WT901BLE68(490AABDC0D29)	0.028	0.998	-0.108	14.526	3.967	-16.052	92.15	-4.39	-174.01	-12.838	-42.728	65.954	0.09082	-0.01566	-0.68787	-0.71988	24.2	13111	100
2025-3-20 10:50:26.116	WT901BLE68(E947F43FF2E9)	0.082	0.634	-0.082	6.958	-25.024	-93.506	72.51	41.36	-26.13	14.602	-65.758	-20.678	-0.68369	-0.60199	-0.15811	0.38089	26.0	13111	100
2025-3-20 10:50:26.138	WT901BLE68(490AABDC0D29)	-0.011	0.998	-0.154	6.775	19.836	-18.066	93.33	-2.58	-172.82	-12.838	-42.728	65.954	0.05939	0.03122	-0.72690	-0.68338	24.2	13111	100
2025-3-20 10:50:26.197	WT901BLE68(490AABDC0D29)	-0.009	0.973	-0.167	-1.404	8.911	-10.986	93.82	-1.16	-170.90	-10.976	-40.474	69.678	0.05939	0.03122	-0.72690	-0.68338	24.2	13111	100
2025-3-20 10:50:26.217	WT901BLE68(E947F43FF2E9)	-0.126	0.376	0.036	67.932	42.847	49.866	79.32	43.49	-20.53	14.602	-65.758	-20.678	-0.68369	-0.60199	-0.15811	0.38089	26.0	13111	100
2025-3-20 10:50:26.318	WT901BLE68(490AABDC0D29)	0.005	0.995	-0.124	-5.188	7.813	11.230	93.76	-1.07	-170.19	-10.976	-40.474	69.678	0.05939	0.03122	-0.72690	-0.68338	24.2	13111	100
2025-3-20 10:50:26.324	WT901BLE68(E947F43FF2E9)	-0.625	0.479	-0.156	109.070	44.006	160.706	94.13	31.22	-9.39	28.028	-65.464	-15.288	-0.68369	-0.60199	-0.15811	0.38089	26.0	13111	100
2025-3-20 10:50:26.418	WT901BLE68(490AABDC0D29)	0.063	0.975	-0.156	-6.165	1.221	17.212	93.46	-2.08	-170.08	-10.976	-40.474	69.678	0.08832	0.03748	-0.72327	-0.68378	24.2	13111	100
2025-3-20 10:50:26.418	WT901BLE68(E947F43FF2E9)	-1.018	0.817	0.216	88.135	-121.155	167.053	102.79	14.10	-14.04	28.028	-65.464	-15.288	-0.68369	-0.60199	-0.15811	0.38089	26.0	13111	100
2025-3-20 10:50:26.524	WT901BLE68(490AABDC0D29)	0.179	1.044	-0.111	-15.198	5.554	33.813	92.70	-4.71	-169.84	-10.976	-40.474	69.678	0.08832	0.03748	-0.72327	-0.68378	24.2	13111	100
2025-3-20 10:50:26.532	WT901BLE68(E947F43FF2E9)	0.168	0.929	-0.125	34.912	-96.436	36.499	105.60	8.31	-32.46	28.028	-65.464	-15.288	-0.55139	-0.77228	0.20050	0.24341	26.0	13111	100
2025-3-20 10:50:26.602	WT901BLE68(E947F43FF2E9)	-0.192	0.915	-0.050	-26.123	7.935	-21.118	105.18	11.80	-38.35	28.028	-65.464	-15.288	-0.55139	-0.77228	0.20050	0.24341	26.0	13111	100
2025-3-20 10:50:26.617	WT901BLE68(490AABDC0D29)	0.169	1.132	-0.080	-32.349	-9.583	52.124	90.54	-8.87	-170.53	-10.976	-40.474	69.678	0.08832	0.03748	-0.72327	-0.68378	24.2	13111	100
2025-3-20 10:50:26.713	WT901BLE68(E947F43FF2E9)	-0.202	0.923	-0.153	-14.160	24.536	-4.578	103.06	13.87	-40.17	4.508	-68.796	0.588	-0.55139	-0.77228	0.20050	0.24341	26.0	13111	100
2025-3-20 10:50:26.738	WT901BLE68(490AABDC0D29)	0.054	1.216	-0.045	-34.973	6.409	20.691	87.45	-12.23	-169.72	-19.894	-42.238	64.876	0.08832	0.03748	-0.72327	-0.68378	24.2	13111	100
2025-3-20 10:50:26.804	WT901BLE68(E947F43FF2E9)	-0.198	0.954	-0.181	-7.690	0.427	11.047	101.90	13.33	-40.69	4.508	-68.796	0.588	-0.55139	-0.77228	0.20050	0.24341	26.0	13111	100
2025-3-20 10:50:26.827	WT901BLE68(490AABDC0D29)	0.860	1.152	0.271	-23.926	43.030	18.066	83.94	-12.38	-165.97	-19.894	-42.238	64.876	0.08832	0.03748	-0.72327	-0.68378	24.2	13111	100
2025-3-20 10:50:26.923	WT901BLE68(E947F43FF2E9)	-0.147	0.975	-0.078	-12.695	1.526	11.169	100.47	12.24	-41.69	4.508	-68.796	0.588	-0.56860	-0.73456	0.21146	0.30377	26.0	13111	100
2025-3-20 10:50:26.947	WT901BLE68(490AABDC0D29)	-0.979	1.945	-0.103	-59.387	-74.707	244.080	81.55	-27.56	-169.73	-19.894	-42.238	64.876	0.23346	-0.14151	-0.64160	-0.71674	24.2	13111	100
2025-3-20 10:50:27.6	WT901BLE68(490AABDC0D29)	-0.967	0.720	0.034	-143.860	4.211	132.629	68.51	-46.87	-164.90	-42.336	-37.240	48.804	0.23346	-0.14151	-0.64160	-0.71674	24.2	13111	100
2025-3-20 10:50:27.15	WT901BLE68(E947F43FF2E9)	-0.155	0.978	-0.132	-8.667	-5.920	1.038	99.29	11.71	-42.56	4.508	-68.796	0.588	-0.56860	-0.73456	0.21146	0.30377	26.0	13111	100
2025-3-20 10:50:27.125	WT901BLE68(490AABDC0D29)	-0.066	0.325	-0.474	-62.988	-124.573	-213.318	66.69	-37.75	-176.91	-42.336	-37.240	48.804	0.23346	-0.14151	-0.64160	-0.71674	24.2	13111	100
2025-3-20 10:50:27.135	WT901BLE68(E947F43FF2E9)	-0.167	0.966	-0.110	-9.033	-23.254	-0.916	97.94	11.94	-44.56	2.940	-68.208	-1.568	-0.56860	-0.73456	0.21146	0.30377	26.0	13111	100
2025-3-20 10:50:27.216	WT901BLE68(490AABDC0D29)	1.784	1.625	-0.023	53.528	-29.602	-347.717	74.33	-6.23	169.03	-42.336	-37.240	48.804	-0.29990	-0.02597	-0.64340	-0.70380	24.2	13111	100
2025-3-20 10:50:27.224	WT901BLE68(E947F43FF2E9)	-0.181	0.984	-0.087	-16.174	-12.390	-2.808	96.38	12.11	-46.08	2.940	-68.208	-1.568	-0.56860	-0.73456	0.21146	0.30377	26.0	13111	100
2025-3-20 10:50:27.337	WT901BLE68(490AABDC0D29)	-0.813	2.084	-0.529	58.167	-156.616	-183.411	79.51	21.11	149.93	-42.336	-37.240	48.804	-0.29990	-0.02597	-0.64340	-0.70380	24.2	13111	100
2025-3-20 10:50:27.345	WT901BLE68(E947F43FF2E9)	-0.213	0.996	-0.047	-23.743	-17.090	-20.325	94.03	13.13	-47.30	2.940	-68.208	-1.568	-0.58868	-0.69220	0.21533	0.35754	26.0	13111	100
2025-3-20 10:50:27.404	WT901BLE68(E947F43FF2E9)	-0.254	1.121	0.009	-27.222	-26.550	-39.856	90.89	16.05	-49.18	2.940	-68.208	-1.568	-0.58868	-0.69220	0.21533	0.35754	26.0	13111	100
2025-3-20 10:50:27.426	WT901BLE68(490AABDC0D29)	0.063	0.695	0.336	30.273	-175.964	77.271	79.85	18.78	144.42	-42.336	-37.240	48.804	-0.29990	-0.02597	-0.64340	-0.70380	24.2	13111	100
2025-3-20 10:50:27.523	WT901BLE68(E947F43FF2E9)	-0.529	1.531	-0.106	-14.221	-63.477	-65.796	87.43	20.86	-53.18	11.564	-69.090	-6.272	-0.58868	-0.69220	0.21533	0.35754	26.0	13111	100
2025-3-20 10:50:27.548	WT901BLE68(490AABDC0D29)	-0.120	1.019	0.307	26.306	-3.052	52.734	83.16	6.62	138.14	18.228	-39.494	50.666	-0.29990	-0.02597	-0.64340	-0.70380	24.2	13111	100
2025-3-20 10:50:27.605	WT901BLE68(490AABDC0D29)	-0.115	0.963	-0.101	20.508	-4.761	9.155	86.22	3.80	139.83	18.228	-39.494	50.666	-0.29990	-0.02597	-0.64340	-0.70380	24.2	13111	100
2025-3-20 10:50:27.614	WT901BLE68(E947F43FF2E9)	-0.220	1.218	-0.323	61.707	-204.163	-107.056	82.69	28.70	-68.52	11.564	-69.090	-6.272	-0.58868	-0.69220	0.21533	0.35754	26.0	13111	100
2025-3-20 10:50:27.727	WT901BLE68(490AABDC0D29)	-0.085	1.006	-0.061	6.104	-1.038	17.212	87.78	2.47	141.11	18.228	-39.494	50.666	-0.25198	-0.21631	-0.65924	-0.67453	24.2	13111	100
2025-3-20 10:50:27.734	WT901BLE68(E947F43FF2E9)	0.080	0.853	0.145	76.660	-76.355	-79.834	80.40	34.52	-85.30	11.564	-69.090	-6.272	-0.35812	-0.61459	0.28113	0.64410	26.0	13111	100
2025-3-20 10:50:27.815	WT901BLE68(490AABDC0D29)	-0.067	0.987	-0.092	5.615	-6.714	13.855	88.72	1.13	142.32	13.230	-41.258	54.292	-0.25198	-0.21631	-0.65924	-0.67453	24.2	13111	100
2025-3-20 10:50:27.823	WT901BLE68(E947F43FF2E9)	-0.137	0.458	0.138	109.802	41.809	52.979	89.66	34.49	-90.28	11.564	-69.090	-6.272	-0.35812	-0.61459	0.28113	0.64410	26.0	13111	100
2025-3-20 10:50:27.936	WT901BLE68(490AABDC0D29)	-0.018	1.028	-0.121	3.052	-9.705	18.311	89.31	0.38	142.90	13.230	-41.258	54.292	-0.25198	-0.21631	-0.65924	-0.67453	24.2	13111	100
2025-3-20 10:50:27.943	WT901BLE68(E947F43FF2E9)	-0.414	0.645	0.208	85.388	29.175	151.672	99.63	22.87	-94.61	11.858	-65.856	19.404	-0.35812	-0.61459	0.28113	0.64410	26.0	13111	100
2025-3-20 10:50:28.6	WT901BLE68(E947F43FF2E9)	-2.381	0.920	0.173	19.714	-1.892	128.113	103.13	8.89	-101.72	11.858	-65.856	19.404	-0.35812	-0.61459	0.28113	0.64410	26.0	13111	100
2025-3-20 10:50:28.27	WT901BLE68(490AABDC0D29)	-0.001	0.995	-0.121	-4.822	-7.874	26.855	89.38	-1.30	143.50	13.230	-41.258	54.292	-0.25198	-0.21631	-0.65924	-0.67453	24.2	13111	100
2025-3-20 10:50:28.123	WT901BLE68(E947F43FF2E9)	-0.264	1.987	-1.359	28.137	48.340	9.216	102.13	1.64	-106.02	11.858	-65.856	19.404	-0.35526	-0.48071	0.60910	0.52115	26.0	13111	100
2025-3-20 10:50:28.147	WT901BLE68(490AABDC0D29)	0.079	1.001	-0.108	-11.230	-6.165	29.968	88.88	-3.82	144.45	13.230	-41.258	54.292	-0.19556	-0.23621	-0.65909	-0.68661	24.2	13111	100
2025-3-20 10:50:28.207	WT901BLE68(490AABDC0D29)	-0.033	1.086	-0.055	-25.696	-8.057	27.710	87.46	-6.48	144.76	13.230	-41.258	54.292	-0.19556	-0.23621	-0.65909	-0.68661	24.2	13111	100
2025-3-20 10:50:28.214	WT901BLE68(E947F43FF2E9)	-0.088	0.720	-0.308	-5.188	-1.770	-40.466	100.96	7.47	-106.48	11.858	-65.856	19.404	-0.35526	-0.48071	0.60910	0.52115	26.0	13111	100
2025-3-20 10:50:28.332	WT901BLE68(E947F43FF2E9)	-0.136	1.001	-0.128	-14.587	20.752	-14.404	100.05	10.32	-105.45	-0.980	-61.250	23.422	-0.35526	-0.48071	0.60910	0.52115	26.0	13111	100
2025-3-20 10:50:28.357	WT901BLE68(490AABDC0D29)	-0.199	1.391	0.045	-37.048	12.756	22.339	84.34	-8.52	146.14	5.978	-45.668	49.490	-0.19556	-0.23621	-0.65909	-0.68661	24.2	13111	100
2025-3-20 10:50:28.414	WT901BLE68(490AABDC0D29)	0.618	1.064	0.051	-28.320	43.274	3.113	81.16	-8.37	150.34	5.978	-45.668	49.490	-0.19556	-0.23621	-0.65909	-0.68661	24.2	13111	100
2025-3-20 10:50:28.423	WT901BLE68(E947F43FF2E9)	-0.053	0.959	-0.170	-5.249	9.399	9.827	99.40	10.55	-105.54	-0.980	-61.250	23.422	-0.35526	-0.48071	0.60910	0.52115	26.0	13111	100
2025-3-20 10:50:28.538	WT901BLE68(490AABDC0D29)	0.182	1.282	-0.226	-51.575	-49.927	75.928	77.55	-12.15	149.73	5.978	-45.668	49.490	-0.13361	-0.24976	-0.57309	-0.76892	24.2	13111	100
2025-3-20 10:50:28.545	WT901BLE68(E947F43FF2E9)	-0.094	0.976	-0.183	-7.690	-8.240	7.141	98.68	9.53	-107.34	-0.980	-61.250	23.422	-0.32983	-0.48145	0.58234	0.56586	26.0	13111	100
2025-3-20 10:50:28.625	WT901BLE68(490AABDC0D29)	0.071	1.497	0.079	-62.073	24.658	122.253	71.35	-20.65	156.08	-12.838	-47.824	36.456	-0.13361	-0.24976	-0.57309	-0.76892	24.2	13111	100
2025-3-20 10:50:28.633	WT901BLE68(E947F43FF2E9)	-0.069	0.981	-0.165	-7.019	-7.568	4.456	97.95	9.01	-110.01	-0.980	-61.250	23.422	-0.32983	-0.48145	0.58234	0.56586	26.0	13111	100
2025-3-20 10:50:28.746	WT901BLE68(490AABDC0D29)	0.195	0.841	-0.021	-28.015	-27.405	60.608	67.45	-29.21	159.37	-12.838	-47.824	36.456	-0.13361	-0.24976	-0.57309	-0.76892	24.2	13111	100
2025-3-20 10:50:28.755	WT901BLE68(E947F43FF2E9)	-0.076	0.983	-0.156	-12.756	-4.700	1.099	97.01	8.65	-112.79	-1.862	-61.740	21.462	-0.32983	-0.48145	0.58234	0.56586	26.0	13111	100
2025-3-20 10:50:28.814	WT901BLE68(E947F43FF2E9)	-0.118	0.981	-0.130	-12.024	-3.723	-6.714	95.75	8.56	-115.21	-1.862	-61.740	21.462	-0.32983	-0.48145	0.58234	0.56586	26.0	13111	100
2025-3-20 10:50:28.836	WT901BLE68(490AABDC0D29)	0.387	0.361	0.042	40.222	-67.078	-74.707	73.95	-28.92	153.34	-12.838	-47.824	36.456	-0.13361	-0.24976	-0.57309	-0.76892	24.2	13111	100
2025-3-20 10:50:28.933	WT901BLE68(E947F43FF2E9)	-0.074	0.991	-0.126	-16.602	-3.906	-9.705	94.36	9.27	-117.62	-1.862	-61.740	21.462	-0.29462	-0.41980	0.59607	0.61771	26.0	13111	100
2025-3-20 10:50:28.957	WT901BLE68(490AABDC0D29)	0.811	0.352	0.076	27.588	-84.656	-135.803	81.97	-19.24	145.08	-12.838	-47.824	36.456	-0.12433	-0.31351	-0.58139	-0.74036	24.2	13111	100
2025-3-20 10:50:29.17	WT901BLE68(490AABDC0D29)	-0.949	0.683	0.181	0.610	-50.415	-92.163	85.42	-8.75	137.92	-12.838	-47.824	36.456	-0.12433	-0.31351	-0.58139	-0.74036	24.2	13111	100
2025-3-20 10:50:29.24	WT901BLE68(E947F43FF2E9)	-0.183	0.950	-0.077	-11.536	-10.498	-18.250	92.94	10.33	-120.25	-1.862	-61.740	21.462	-0.29462	-0.41980	0.59607	0.61771	26.0	13111	100
2025-3-20 10:50:29.138	WT901BLE68(490AABDC0D29)	0.175	1.440	0.483	-21.423	-20.813	11.169	85.65	-7.56	133.52	7.448	-43.414	40.572	-0.12433	-0.31351	-0.58139	-0.74036	24.2	13111	100
2025-3-20 10:50:29.143	WT901BLE68(E947F43FF2E9)	-0.181	1.038	-0.076	-14.160	-17.517	-14.404	91.63	11.87	-123.40	2.744	-64.484	18.522	-0.29462	-0.41980	0.59607	0.61771	26.0	13111	100
2025-3-20 10:50:29.225	WT901BLE68(490AABDC0D29)	0.072	0.934	0.024	-4.272	-7.813	-1.526	84.67	-9.62	132.74	7.448	-43.414	40.572	-0.22946	-0.31415	-0.60324	-0.69617	24.2	13111	100
2025-3-20 10:50:29.233	WT901BLE68(E947F43FF2E9)	-0.048	1.166	0.044	-22.156	2.686	-5.432	89.64	12.30	-126.05	2.744	-64.484	18.522	-0.29462	-0.41980	0.59607	0.61771	26.0	13111	100
2025-3-20 10:50:29.346	WT901BLE68(490AABDC0D29)	0.062	1.089	-0.007	14.954	19.165	-13.916	85.79	-9.09	135.27	7.448	-43.414	40.572	-0.22946	-0.31415	-0.60324	-0.69617	24.2	13111	100
2025-3-20 10:50:29.355	WT901BLE68(E947F43FF2E9)	-0.480	1.292	0.152	-14.221	-11.292	-7.629	87.61	12.54	-128.34	2.744	-64.484	18.522	-0.22699	-0.35419	0.58795	0.69080	26.0	13111	100
2025-3-20 10:50:29.414	WT901BLE68(E947F43FF2E9)	-0.707	1.227	-0.070	-14.648	-44.067	-59.143	85.67	14.16	-134.27	2.744	-64.484	18.522	-0.22699	-0.35419	0.58795	0.69080	26.0	13111	100
2025-3-20 10:50:29.437	WT901BLE68(490AABDC0D29)	0.045	0.992	-0.046	19.165	10.742	-22.705	87.39	-6.92	137.76	7.448	-43.414	40.572	-0.22946	-0.31415	-0.60324	-0.69617	24.2	13111	100
2025-3-20 10:50:29.533	WT901BLE68(E947F43FF2E9)	0.281	1.712	0.027	-19.775	-131.226	-164.429	81.60	27.24	-142.10	21.854	-66.738	12.838	-0.22699	-0.35419	0.58795	0.69080	26.0	13111	100
2025-3-20 10:50:29.556	WT901BLE68(490AABDC0D29)	-0.032	1.024	-0.094	13.794	20.996	-22.705	89.32	-4.58	140.54	10.486	-41.944	43.414	-0.22946	-0.31415	-0.60324	-0.69617	24.2	13111	100
2025-3-20 10:50:29.617	WT901BLE68(490AABDC0D29)	-0.045	0.962	-0.099	1.587	11.230	-22.461	90.09	-2.19	143.43	10.486	-41.944	43.414	-0.22946	-0.31415	-0.60324	-0.69617	24.2	13111	100
2025-3-20 10:50:29.624	WT901BLE68(E947F43FF2E9)	0.048	0.955	-0.007	5.493	-36.926	-114.380	73.14	37.78	-158.77	21.854	-66.738	12.838	-0.22699	-0.35419	0.58795	0.69080	26.0	13111	100
2025-3-20 10:50:29.744	WT901BLE68(E947F43FF2E9)	-0.274	0.409	-0.028	34.607	53.772	56.213	77.40	38.22	-159.93	21.854	-66.738	12.838	0.04672	-0.33020	0.57043	0.75052	26.0	13111	100
2025-3-20 10:50:29.767	WT901BLE68(490AABDC0D29)	-0.091	0.992	-0.139	-4.150	-0.427	-11.414	90.30	-0.29	144.93	10.486	-41.944	43.414	-0.21078	-0.21393	-0.67581	-0.67303	24.2	13111	100
2025-3-20 10:50:29.827	WT901BLE68(490AABDC0D29)	-0.058	0.987	-0.106	-10.437	4.211	1.160	89.85	0.35	146.31	10.486	-41.944	43.414	-0.21078	-0.21393	-0.67581	-0.67303	24.2	13111	100
2025-3-20 10:50:29.834	WT901BLE68(E947F43FF2E9)	-0.648	0.440	-0.098	36.316	71.472	151.367	85.36	25.13	-155.92	21.854	-66.738	12.838	0.04672	-0.33020	0.57043	0.75052	26.0	13111	100
2025-3-20 10:50:29.948	WT901BLE68(490AABDC0D29)	0.021	1.021	-0.091	-8.240	8.484	17.395	89.27	-0.45	147.96	13.426	-40.180	46.060	-0.21078	-0.21393	-0.67581	-0.67303	24.2	13111	100
2025-3-20 10:50:29.955	WT901BLE68(E947F43FF2E9)	-0.596	0.656	-0.115	8.728	106.140	129.456	91.02	10.99	-145.59	2.156	-65.170	17.542	0.04672	-0.33020	0.57043	0.75052	26.0	13111	100
2025-3-20 10:50:30.38	WT901BLE68(490AABDC0D29)	0.011	1.059	-0.110	-17.029	-1.099	23.865	88.51	-2.48	148.96	13.426	-40.180	46.060	-0.16660	-0.20227	-0.65149	-0.71188	24.2	13111	100
2025-3-20 10:50:30.43	WT901BLE68(E947F43FF2E9)	-0.440	0.675	-0.155	-12.939	38.940	49.683	90.38	4.46	-138.85	2.156	-65.170	17.542	0.04672	-0.33020	0.57043	0.75052	26.0	13111	100
2025-3-20 10:50:30.156	WT901BLE68(490AABDC0D29)	-0.076	1.287	-0.000	-38.330	2.380	13.672	85.85	-4.11	149.92	13.426	-40.180	46.060	-0.16660	-0.20227	-0.65149	-0.71188	24.2	13111	100
2025-3-20 10:50:30.165	WT901BLE68(E947F43FF2E9)	-0.140	0.653	-0.083	-2.747	-0.427	-21.057	89.91	8.45	-137.91	2.156	-65.170	17.542	-0.20218	-0.31097	0.63348	0.67899	26.0	13111	100
2025-3-20 10:50:30.224	WT901BLE68(E947F43FF2E9)	-0.172	1.045	-0.108	4.272	1.160	2.563	89.87	9.70	-137.00	2.156	-65.170	17.542	-0.20218	-0.31097	0.63348	0.67899	26.0	13111	100
2025-3-20 10:50:30.246	WT901BLE68(490AABDC0D29)	0.181	1.092	0.081	-28.320	12.878	4.211	82.49	-4.17	151.77	13.426	-40.180	46.060	-0.16660	-0.20227	-0.65149	-0.71188	24.2	13111	100
2025-3-20 10:50:30.345	WT901BLE68(E947F43FF2E9)	-0.146	0.994	-0.085	-2.808	6.042	5.066	90.30	9.50	-135.89	-1.470	-64.778	15.876	-0.20218	-0.31097	0.63348	0.67899	26.0	13111	100
2025-3-20 10:50:30.367	WT901BLE68(490AABDC0D29)	-0.001	1.310	-0.271	-45.105	-37.170	82.458	79.70	-7.38	153.92	6.762	-43.120	41.062	-0.16660	-0.20227	-0.65149	-0.71188	24.2	13111	100
2025-3-20 10:50:30.427	WT901BLE68(490AABDC0D29)	-0.079	1.375	-0.065	-64.026	63.232	155.212	71.37	-20.43	164.98	6.762	-43.120	41.062	-0.16660	-0.20227	-0.65149	-0.71188	24.2	13111	100
2025-3-20 10:50:30.434	WT901BLE68(E947F43FF2E9)	-0.126	0.982	-0.102	-3.235	2.197	2.258	90.30	9.20	-134.93	-1.470	-64.778	15.876	-0.20218	-0.31097	0.63348	0.67899	26.0	13111	100
2025-3-20 10:50:30.548	WT901BLE68(490AABDC0D29)	0.046	0.515	-0.089	23.926	-46.387	45.898	68.07	-30.08	170.75	6.762	-43.120	41.062	0.08231	-0.26089	-0.52393	-0.80658	24.2	13111	100
2025-3-20 10:50:30.555	WT901BLE68(E947F43FF2E9)	-0.160	0.997	-0.091	-8.423	-3.296	-2.380	89.98	9.22	-134.75	-1.470	-64.778	15.876	-0.21906	-0.32367	0.62619	0.67453	26.0	13111	100
2025-3-20 10:50:30.672	WT901BLE68(490AABDC0D29)	0.285	0.331	0.143	71.472	-72.998	-88.440	77.16	-27.84	166.49	6.762	-43.120	41.062	0.08231	-0.26089	-0.52393	-0.80658	24.2	13111	100
2025-3-20 10:50:30.672	WT901BLE68(E947F43FF2E9)	-0.155	0.981	-0.070	-10.254	-8.911	-4.150	89.20	9.49	-134.97	-1.470	-64.778	15.876	-0.21906	-0.32367	0.62619	0.67453	26.0	13111	100
2025-3-20 10:50:30.757	WT901BLE68(490AABDC0D29)	1.173	0.436	0.401	31.067	-62.439	-139.526	86.10	-16.20	159.60	-1.176	-43.218	49.098	0.08231	-0.26089	-0.52393	-0.80658	24.2	13111	100
2025-3-20 10:50:30.765	WT901BLE68(E947F43FF2E9)	-0.165	0.976	-0.056	-8.850	-14.526	-5.066	88.19	10.01	-136.10	0.000	-65.660	14.406	-0.21906	-0.32367	0.62619	0.67453	26.0	13111	100
2025-3-20 10:50:30.823	WT901BLE68(E947F43FF2E9)	-0.158	0.918	-0.049	-9.033	-9.827	-3.479	87.48	9.99	-137.13	0.000	-65.660	14.406	-0.21906	-0.32367	0.62619	0.67453	26.0	13111	100
2025-3-20 10:50:30.848	WT901BLE68(490AABDC0D29)	0.454	0.779	0.002	-13.489	-79.895	-72.327	86.52	-5.75	153.65	-1.176	-43.218	49.098	0.08231	-0.26089	-0.52393	-0.80658	24.2	13111	100
2025-3-20 10:50:30.943	WT901BLE68(E947F43FF2E9)	-0.053	1.158	-0.082	-19.531	-10.864	11.169	86.30	10.28	-137.96	0.000	-65.660	14.406	-0.21008	-0.29074	0.61029	0.70624	26.0	13111	100
2025-3-20 10:50:30.966	WT901BLE68(490AABDC0D29)	0.170	1.430	-0.304	-45.044	-79.407	7.263	83.46	-7.57	147.79	-1.176	-43.218	49.098	-0.17365	-0.24225	-0.61264	-0.73193	24.2	13111	100
2025-3-20 10:50:31.25	WT901BLE68(490AABDC0D29)	0.113	1.036	0.082	-6.042	-23.926	-5.676	81.04	-8.60	144.35	-1.176	-43.218	49.098	-0.17365	-0.24225	-0.61264	-0.73193	24.2	13111	100
2025-3-20 10:50:31.35	WT901BLE68(E947F43FF2E9)	-0.012	1.333	0.083	-10.437	-40.527	3.540	84.62	8.65	-139.74	0.000	-65.660	14.406	-0.21008	-0.29074	0.61029	0.70624	26.0	13111	100
2025-3-20 10:50:31.154	WT901BLE68(E947F43FF2E9)	-0.804	1.107	0.155	-18.005	-35.034	-35.339	82.96	9.39	-144.38	2.058	-66.934	11.368	-0.21008	-0.29074	0.61029	0.70624	26.0	13111	100
2025-3-20 10:50:31.177	WT901BLE68(490AABDC0D29)	0.064	0.990	0.036	35.828	9.888	-17.334	83.09	-7.74	144.56	7.448	-42.238	43.218	-0.17365	-0.24225	-0.61264	-0.73193	24.2	13111	100
2025-3-20 10:50:31.237	WT901BLE68(490AABDC0D29)	0.018	1.026	-0.069	24.231	-2.014	-24.414	86.30	-5.73	145.61	7.448	-42.238	43.218	-0.17365	-0.24225	-0.61264	-0.73193	24.2	13111	100
2025-3-20 10:50:31.245	WT901BLE68(E947F43FF2E9)	-0.300	1.426	-0.182	-28.442	-47.180	-45.532	80.12	15.27	-149.38	2.058	-66.934	11.368	-0.21008	-0.29074	0.61029	0.70624	26.0	13111	100
2025-3-20 10:50:31.357	WT901BLE68(490AABDC0D29)	-0.020	1.017	-0.082	8.728	-3.784	-20.691	88.10	-3.46	146.15	7.448	-42.238	43.218	-0.18991	-0.22089	-0.66043	-0.69199	24.2	13111	100
2025-3-20 10:50:31.365	WT901BLE68(E947F43FF2E9)	-0.065	1.135	-0.116	-2.686	-58.289	-119.690	76.09	26.53	-155.43	2.058	-66.934	11.368	0.01965	-0.31827	0.53897	0.77957	26.0	13111	100
2025-3-20 10:50:31.447	WT901BLE68(490AABDC0D29)	-0.021	0.994	-0.102	8.301	5.859	-15.869	89.31	-1.49	147.35	7.448	-42.238	43.218	-0.18991	-0.22089	-0.66043	-0.69199	24.2	13111	100
2025-3-20 10:50:31.455	WT901BLE68(E947F43FF2E9)	-0.043	0.563	-0.070	34.668	16.113	-58.167	76.16	33.74	-161.34	2.058	-66.934	11.368	0.01965	-0.31827	0.53897	0.77957	26.0	13111	100
2025-3-20 10:50:31.565	WT901BLE68(490AABDC0D29)	-0.031	0.997	-0.144	3.235	15.686	-6.348	90.19	-0.35	149.25	12.642	-38.906	48.706	-0.18991	-0.22089	-0.66043	-0.69199	24.2	13111	100
2025-3-20 10:50:31.575	WT901BLE68(E947F43FF2E9)	-0.194	0.437	-0.079	57.068	75.867	66.650	84.99	31.95	-159.18	18.326	-65.072	11.760	0.01965	-0.31827	0.53897	0.77957	26.0	13111	100
2025-3-20 10:50:31.633	WT901BLE68(E947F43FF2E9)	-0.670	0.592	0.070	27.649	77.942	139.404	92.85	19.80	-155.21	18.326	-65.072	11.760	0.01965	-0.31827	0.53897	0.77957	26.0	13111	100
2025-3-20 10:50:31.658	WT901BLE68(490AABDC0D29)	0.024	0.995	-0.109	-5.371	20.691	8.240	90.41	-0.38	152.06	12.642	-38.906	48.706	-0.18991	-0.22089	-0.66043	-0.69199	24.2	13111	100
2025-3-20 10:50:31.754	WT901BLE68(E947F43FF2E9)	0.477	0.771	0.147	-11.353	50.964	114.197	94.01	6.11	-149.49	18.326	-65.072	11.760	-0.17746	-0.22546	0.68726	0.66724	26.0	13111	100
2025-3-20 10:50:31.777	WT901BLE68(490AABDC0D29)	0.031	0.997	-0.114	-12.817	12.207	18.616	89.85	-1.76	154.30	12.642	-38.906	48.706	-0.13925	-0.16730	-0.68387	-0.69629	24.2	13111	100
2025-3-20 10:50:31.837	WT901BLE68(490AABDC0D29)	-0.032	1.113	-0.002	-27.100	3.906	29.358	88.35	-4.07	156.03	12.642	-38.906	48.706	-0.13925	-0.16730	-0.68387	-0.69629	24.2	13111	100
2025-3-20 10:50:31.844	WT901BLE68(E947F43FF2E9)	-0.259	1.498	0.359	-25.452	-28.198	-50.476	91.60	5.70	-143.94	18.326	-65.072	11.760	-0.17746	-0.22546	0.68726	0.66724	26.0	13111	100
2025-3-20 10:50:31.957	WT901BLE68(490AABDC0D29)	0.182	1.343	-0.023	-32.043	12.573	7.874	85.18	-5.63	157.17	6.664	-41.356	47.040	-0.13925	-0.16730	-0.68387	-0.69629	24.2	13111	100
2025-3-20 10:50:31.965	WT901BLE68(E947F43FF2E9)	-0.206	1.038	-0.100	-5.554	13.672	-3.845	90.72	9.96	-141.70	4.018	-61.544	9.408	-0.17746	-0.22546	0.68726	0.66724	26.0	13111	100
2025-3-20 10:50:32.47	WT901BLE68(490AABDC0D29)	0.359	1.184	-0.125	-36.621	37.903	53.528	82.53	-6.12	161.99	6.664	-41.356	47.040	-0.13925	-0.16730	-0.68387	-0.69629	24.2	13111	100
2025-3-20 10:50:32.54	WT901BLE68(E947F43FF2E9)	-0.170	0.979	-0.137	4.456	-2.075	7.324	90.77	10.44	-139.06	4.018	-61.544	9.408	-0.17746	-0.22546	0.68726	0.66724	26.0	13111	100
2025-3-20 10:50:32.165	WT901BLE68(490AABDC0D29)	-0.127	1.685	0.044	-72.510	89.966	183.289	76.81	-18.20	168.31	6.664	-41.356	47.040	0.05063	-0.19302	-0.58243	-0.78793	24.2	13111	100
2025-3-20 10:50:32.175	WT901BLE68(E947F43FF2E9)	-0.163	0.964	-0.122	-7.385	0.916	8.850	90.73	10.02	-136.77	4.018	-61.544	9.408	-0.21121	-0.32272	0.63235	0.67175	26.0	13111	100
2025-3-20 10:50:32.234	WT901BLE68(E947F43FF2E9)	-0.100	0.990	-0.140	-11.536	3.662	9.460	90.22	9.29	-134.50	4.018	-61.544	9.408	-0.21121	-0.32272	0.63235	0.67175	26.0	13111	100
2025-3-20 10:50:32.258	WT901BLE68(490AABDC0D29)	0.014	0.757	0.015	-36.987	-10.742	121.216	67.34	-31.85	179.00	6.664	-41.356	47.040	0.05063	-0.19302	-0.58243	-0.78793	24.2	13111	100
2025-3-20 10:50:32.353	WT901BLE68(E947F43FF2E9)	-0.134	0.982	-0.093	-13.672	3.967	2.136	89.19	8.93	-132.37	2.058	-61.152	7.546	-0.21121	-0.32272	0.63235	0.67175	26.0	13111	100
2025-3-20 10:50:32.377	WT901BLE68(490AABDC0D29)	0.176	0.324	-0.000	25.269	-45.166	-45.166	69.19	-35.34	177.87	-23.226	-41.356	39.200	0.05063	-0.19302	-0.58243	-0.78793	24.2	13111	100
2025-3-20 10:50:32.436	WT901BLE68(490AABDC0D29)	0.663	0.392	0.074	47.119	-26.611	-142.334	77.38	-25.25	172.17	-23.226	-41.356	39.200	0.05063	-0.19302	-0.58243	-0.78793	24.2	13111	100
2025-3-20 10:50:32.445	WT901BLE68(E947F43FF2E9)	-0.121	0.988	-0.054	-12.939	-2.502	-5.005	88.30	9.15	-130.70	2.058	-61.152	7.546	-0.21121	-0.32272	0.63235	0.67175	26.0	13111	100
2025-3-20 10:50:32.563	WT901BLE68(E947F43FF2E9)	-0.188	0.954	-0.044	-10.681	-7.324	-11.414	87.40	9.86	-130.03	2.058	-61.152	7.546	-0.24875	-0.34869	0.59402	0.68085	26.0	13111	100
2025-3-20 10:50:32.588	WT901BLE68(490AABDC0D29)	0.697	0.586	0.350	29.602	-21.729	-145.996	83.23	-10.31	168.33	-23.226	-41.356	39.200	-0.07349	-0.11865	-0.66031	-0.73785	24.2	13111	100
2025-3-20 10:50:32.646	WT901BLE68(490AABDC0D29)	0.253	1.531	0.531	-32.104	-40.344	10.925	83.38	-5.08	164.16	-23.226	-41.356	39.200	-0.07349	-0.11865	-0.66031	-0.73785	24.2	13111	100
2025-3-20 10:50:32.655	WT901BLE68(E947F43FF2E9)	-0.209	1.043	-0.049	-7.202	-21.179	-10.315	86.69	10.74	-130.50	2.058	-61.152	7.546	-0.24875	-0.34869	0.59402	0.68085	26.0	13111	100
2025-3-20 10:50:32.767	WT901BLE68(490AABDC0D29)	0.198	0.949	0.305	-15.930	-22.583	3.235	80.72	-8.43	158.76	1.274	-40.572	41.846	-0.07349	-0.11865	-0.66031	-0.73785	24.2	13111	100
2025-3-20 10:50:32.775	WT901BLE68(E947F43FF2E9)	0.008	1.269	0.027	-20.813	-13.977	17.639	85.30	10.05	-131.75	3.528	-61.740	5.488	-0.24875	-0.34869	0.59402	0.68085	26.0	13111	100
2025-3-20 10:50:32.858	WT901BLE68(490AABDC0D29)	0.134	1.007	0.011	31.616	22.400	-9.766	82.45	-9.12	160.09	1.274	-40.572	41.846	-0.07349	-0.11865	-0.66031	-0.73785	24.2	13111	100
2025-3-20 10:50:32.865	WT901BLE68(E947F43FF2E9)	-0.707	1.250	0.252	-14.282	-26.855	-16.235	83.71	9.00	-135.04	3.528	-61.740	5.488	-0.24875	-0.34869	0.59402	0.68085	26.0	13111	100
2025-3-20 10:50:32.976	WT901BLE68(490AABDC0D29)	0.094	0.997	-0.053	31.311	15.015	-21.851	85.82	-7.50	162.03	1.274	-40.572	41.846	-0.06949	-0.14810	-0.66949	-0.72452	24.2	13111	100
2025-3-20 10:50:32.985	WT901BLE68(E947F43FF2E9)	-0.280	1.229	0.008	-20.142	-36.865	-101.440	81.27	12.12	-142.99	3.528	-61.740	5.488	-0.13770	-0.32053	0.55707	0.75357	26.0	13111	100
2025-3-20 10:50:33.44	WT901BLE68(E947F43FF2E9)	0.096	1.357	0.016	-4.944	-91.370	-146.118	77.76	24.03	-145.94	3.528	-61.740	5.488	-0.13770	-0.32053	0.55707	0.75357	26.0	13111	100
2025-3-20 10:50:33.67	WT901BLE68(490AABDC0D29)	0.029	0.992	-0.076	19.104	16.174	-30.151	88.25	-5.04	163.83	1.274	-40.572	41.846	-0.06949	-0.14810	-0.66949	-0.72452	24.2	13111	100
2025-3-20 10:50:33.162	WT901BLE68(E947F43FF2E9)	0.037	0.923	0.031	11.475	-39.612	-106.750	71.49	33.87	-160.52	28.616	-59.780	4.606	-0.13770	-0.32053	0.55707	0.75357	26.0	13111	100
2025-3-20 10:50:33.187	WT901BLE68(490AABDC0D29)	-0.030	0.979	-0.123	4.822	5.554	-27.710	89.57	-2.25	165.08	5.586	-37.436	49.784	-0.06949	-0.14810	-0.66949	-0.72452	24.2	13111	100
2025-3-20 10:50:33.246	WT901BLE68(490AABDC0D29)	-0.021	0.997	-0.139	-1.343	2.686	-13.000	90.14	-0.31	165.85	5.586	-37.436	49.784	-0.06949	-0.14810	-0.66949	-0.72452	24.2	13111	100
2025-3-20 10:50:33.255	WT901BLE68(E947F43FF2E9)	-0.218	0.385	-0.044	33.325	89.661	49.561	74.06	35.34	-163.92	28.616	-59.780	4.606	-0.13770	-0.32053	0.55707	0.75357	26.0	13111	100
2025-3-20 10:50:33.367	WT901BLE68(490AABDC0D29)	-0.025	0.992	-0.116	1.770	1.404	-0.610	90.52	0.14	166.43	5.586	-37.436	49.784	-0.08246	-0.08270	-0.70636	-0.69809	24.2	13111	100
2025-3-20 10:50:33.374	WT901BLE68(E947F43FF2E9)	-0.562	0.486	0.032	46.143	47.607	139.099	82.60	25.05	-159.36	28.616	-59.780	4.606	-0.04245	-0.24847	0.63879	0.72681	26.0	13111	100
2025-3-20 10:50:33.465	WT901BLE68(E947F43FF2E9)	-1.929	0.676	-0.038	18.066	59.570	135.315	88.60	11.15	-152.41	28.616	-59.780	4.606	-0.04245	-0.24847	0.63879	0.72681	26.0	13111	100
2025-3-20 10:50:33.488	WT901BLE68(490AABDC0D29)	0.018	1.020	-0.119	-9.338	-4.517	9.521	90.51	-0.30	166.60	5.586	-37.436	49.784	-0.08246	-0.08270	-0.70636	-0.69809	24.2	13111	100
2025-3-20 10:50:33.575	WT901BLE68(490AABDC0D29)	0.083	1.023	-0.124	-18.066	-2.258	21.973	89.49	-1.99	166.71	5.292	-37.632	49.882	-0.08246	-0.08270	-0.70636	-0.69809	24.2	13111	100
2025-3-20 10:50:33.584	WT901BLE68(E947F43FF2E9)	-0.266	1.547	-0.364	4.028	29.907	-1.465	89.65	4.99	-145.93	6.174	-59.780	15.386	-0.04245	-0.24847	0.63879	0.72681	26.0	13111	100
2025-3-20 10:50:33.644	WT901BLE68(E947F43FF2E9)	-0.288	0.735	-0.120	-0.366	-5.249	-30.151	88.53	10.52	-144.82	6.174	-59.780	15.386	-0.04245	-0.24847	0.63879	0.72681	26.0	13111	100
2025-3-20 10:50:33.667	WT901BLE68(490AABDC0D29)	-0.082	1.189	0.019	-40.894	-4.395	22.644	87.23	-4.33	166.99	5.292	-37.632	49.882	-0.08246	-0.08270	-0.70636	-0.69809	24.2	13111	100
2025-3-20 10:50:33.765	WT901BLE68(E947F43FF2E9)	-0.233	0.999	-0.100	-2.197	7.751	-8.972	88.38	12.75	-144.40	6.174	-59.780	15.386	-0.14990	-0.29324	0.63477	0.69894	26.0	13111	100
2025-3-20 10:50:33.788	WT901BLE68(490AABDC0D29)	0.109	1.325	0.042	-36.255	12.756	-4.089	83.38	-5.07	167.60	5.292	-37.632	49.882	-0.05038	-0.09967	-0.65179	-0.75006	24.2	13111	100
2025-3-20 10:50:33.853	WT901BLE68(E947F43FF2E9)	-0.184	0.951	-0.113	2.869	14.893	13.916	88.98	12.38	-142.87	6.174	-59.780	15.386	-0.14990	-0.29324	0.63477	0.69894	26.0	13111	100
2025-3-20 10:50:33.877	WT901BLE68(490AABDC0D29)	0.404	1.073	-0.081	-35.400	38.025	34.790	80.85	-4.69	171.29	5.292	-37.632	49.882	-0.05038	-0.09967	-0.65179	-0.75006	24.2	13111	100
2025-3-20 10:50:33.967	WT901BLE68(490AABDC0D29)	-0.060	1.550	0.054	-75.012	95.398	152.649	75.72	-14.16	175.56	-7.448	-41.748	40.572	-0.05038	-0.09967	-0.65179	-0.75006	24.2	13111	100
2025-3-20 10:50:33.974	WT901BLE68(E947F43FF2E9)	-0.140	0.974	-0.093	-2.991	5.493	11.902	89.40	11.15	-141.94	6.272	-60.270	14.700	-0.14990	-0.29324	0.63477	0.69894	26.0	13111	100
2025-3-20 10:50:34.57	WT901BLE68(490AABDC0D29)	-0.099	0.951	-0.068	-27.954	-1.709	118.103	67.62	-26.05	-174.80	-7.448	-41.748	40.572	-0.05038	-0.09967	-0.65179	-0.75006	24.2	13111	100
2025-3-20 10:50:34.65	WT901BLE68(E947F43FF2E9)	-0.159	0.997	-0.130	-6.104	1.709	4.456	89.37	10.38	-141.90	6.272	-60.270	14.700	-0.14990	-0.29324	0.63477	0.69894	26.0	13111	100
2025-3-20 10:50:34.177	WT901BLE68(490AABDC0D29)	0.106	0.367	-0.153	63.660	-39.917	-33.997	71.25	-29.52	-175.34	-7.448	-41.748	40.572	0.15933	-0.16394	-0.60648	-0.76144	24.2	13111	100
2025-3-20 10:50:34.184	WT901BLE68(E947F43FF2E9)	-0.192	0.975	-0.085	-6.348	-1.892	-4.944	89.02	10.43	-142.57	6.272	-60.270	14.700	-0.16586	-0.28372	0.64032	0.69418	26.0	13111	100
2025-3-20 10:50:34.266	WT901BLE68(490AABDC0D29)	0.789	0.390	0.107	97.778	-17.639	-143.738	83.13	-19.10	-179.12	-7.448	-41.748	40.572	0.15933	-0.16394	-0.60648	-0.76144	24.2	13111	100
2025-3-20 10:50:34.275	WT901BLE68(E947F43FF2E9)	-0.130	0.976	-0.082	-5.127	3.113	4.639	88.84	10.26	-142.91	6.272	-60.270	14.700	-0.16586	-0.28372	0.64032	0.69418	26.0	13111	100
2025-3-20 10:50:34.388	WT901BLE68(490AABDC0D29)	0.347	0.794	0.402	63.721	-20.569	-128.906	91.90	-4.09	178.87	-0.392	-39.494	50.764	0.15933	-0.16394	-0.60648	-0.76144	24.2	13111	100
2025-3-20 10:50:34.394	WT901BLE68(E947F43FF2E9)	-0.210	0.967	-0.071	-6.958	0.244	-9.460	88.54	10.43	-143.66	6.566	-60.662	13.328	-0.16586	-0.28372	0.64032	0.69418	26.0	13111	100
2025-3-20 10:50:34.454	WT901BLE68(E947F43FF2E9)	-0.208	0.990	-0.088	-4.639	-9.277	-12.329	88.30	11.39	-144.84	6.566	-60.662	13.328	-0.16586	-0.28372	0.64032	0.69418	26.0	13111	100
2025-3-20 10:50:34.477	WT901BLE68(490AABDC0D29)	0.166	1.761	0.332	-24.536	-24.536	12.756	92.02	-0.29	178.82	-0.392	-39.494	50.764	0.15933	-0.16394	-0.60648	-0.76144	24.2	13111	100
2025-3-20 10:50:34.574	WT901BLE68(E947F43FF2E9)	-0.165	1.018	-0.055	-15.442	-23.315	-4.517	87.26	11.98	-147.13	6.566	-60.662	13.328	-0.12466	-0.25342	0.63467	0.71927	26.0	13111	100
2025-3-20 10:50:34.597	WT901BLE68(490AABDC0D29)	0.225	0.804	-0.007	-13.245	-25.818	30.151	89.68	-4.48	175.14	-0.392	-39.494	50.764	-0.00089	-0.06952	-0.69934	-0.71133	24.2	13111	100
2025-3-20 10:50:34.657	WT901BLE68(490AABDC0D29)	0.213	0.985	-0.055	-19.958	-1.526	16.968	88.29	-7.25	174.12	-0.392	-39.494	50.764	-0.00089	-0.06952	-0.69934	-0.71133	24.2	13111	100
2025-3-20 10:50:34.665	WT901BLE68(E947F43FF2E9)	-0.010	1.135	0.021	-12.939	-11.536	2.319	85.83	11.64	-149.79	6.566	-60.662	13.328	-0.12466	-0.25342	0.63467	0.71927	26.0	13111	100
2025-3-20 10:50:34.776	WT901BLE68(490AABDC0D29)	0.179	0.943	-0.038	-6.836	-1.282	-1.831	87.12	-8.26	173.66	-0.882	-40.768	48.216	-0.00089	-0.06952	-0.69934	-0.71133	24.2	13111	100
2025-3-20 10:50:34.784	WT901BLE68(E947F43FF2E9)	-0.248	1.255	0.174	-19.043	18.982	-38.269	84.52	12.27	-151.86	10.878	-62.132	10.486	-0.12466	-0.25342	0.63467	0.71927	26.0	13111	100
2025-3-20 10:50:34.866	WT901BLE68(490AABDC0D29)	0.158	0.973	-0.057	11.475	8.789	-18.127	87.85	-7.37	173.78	-0.882	-40.768	48.216	-0.00089	-0.06952	-0.69934	-0.71133	24.2	13111	100
2025-3-20 10:50:34.874	WT901BLE68(E947F43FF2E9)	-1.014	1.074	0.094	-18.616	-48.279	-32.654	82.33	15.85	-155.28	10.878	-62.132	10.486	-0.12466	-0.25342	0.63467	0.71927	26.0	13111	100
2025-3-20 10:50:34.988	WT901BLE68(490AABDC0D29)	0.117	0.990	-0.096	8.179	10.742	-18.127	89.15	-5.82	174.59	-0.882	-40.768	48.216	-0.00092	-0.06143	-0.70145	-0.70999	24.2	13111	100
2025-3-20 10:50:34.995	WT901BLE68(E947F43FF2E9)	-0.392	1.292	-0.327	-47.852	119.019	-148.254	79.90	22.25	-155.86	10.878	-62.132	10.486	-0.00665	-0.36469	0.53583	0.76141	26.0	13111	100
2025-3-20 10:50:35.54	WT901BLE68(E947F43FF2E9)	0.097	1.290	-0.078	-29.297	-45.654	-192.688	76.65	40.55	-152.86	10.878	-62.132	10.486	-0.00665	-0.36469	0.53583	0.76141	26.0	13111	100
2025-3-20 10:50:35.76	WT901BLE68(490AABDC0D29)	0.034	0.986	-0.083	5.066	12.451	-23.987	89.86	-3.92	175.41	-0.882	-40.768	48.216	-0.00092	-0.06143	-0.70145	-0.70999	24.2	13111	100
2025-3-20 10:50:35.195	WT901BLE68(490AABDC0D29)	0.008	0.985	-0.137	-0.305	8.728	-23.315	90.54	-1.75	176.36	3.430	-38.514	51.842	-0.00092	-0.06143	-0.70145	-0.70999	24.2	13111	100
2025-3-20 10:50:35.212	WT901BLE68(E947F43FF2E9)	0.153	0.419	0.117	-38.208	25.879	-52.490	66.86	51.05	-165.90	38.612	-57.624	2.254	-0.00665	-0.36469	0.53583	0.76141	26.0	13111	100
2025-3-20 10:50:35.264	WT901BLE68(E947F43FF2E9)	-0.433	0.272	-0.011	-49.255	73.669	141.113	69.96	46.38	-160.03	38.612	-57.624	2.254	-0.00665	-0.36469	0.53583	0.76141	26.0	13111	100
2025-3-20 10:50:35.286	WT901BLE68(490AABDC0D29)	-0.020	1.004	-0.140	-11.353	8.545	-0.732	90.26	-0.57	176.72	3.430	-38.514	51.842	-0.00092	-0.06143	-0.70145	-0.70999	24.2	13111	100
2025-3-20 10:50:35.377	WT901BLE68(490AABDC0D29)	0.152	0.982	-0.076	-18.005	1.526	29.663	89.24	-1.80	177.46	3.430	-38.514	51.842	0.00208	-0.03549	-0.69812	-0.71503	24.2	13111	100
2025-3-20 10:50:35.385	WT901BLE68(E947F43FF2E9)	-0.927	0.656	-0.057	-47.852	41.016	226.563	72.10	27.25	-152.22	38.612	-57.624	2.254	-0.19275	-0.28604	0.52576	0.77750	26.0	13111	100
2025-3-20 10:50:35.474	WT901BLE68(E947F43FF2E9)	-1.957	0.639	-0.326	-17.822	147.400	126.892	73.49	12.52	-137.60	38.612	-57.624	2.254	-0.19275	-0.28604	0.52576	0.77750	26.0	13111	100
2025-3-20 10:50:35.499	WT901BLE68(490AABDC0D29)	0.251	1.028	-0.025	-17.212	0.305	45.715	87.92	-5.56	177.00	3.430	-38.514	51.842	0.00208	-0.03549	-0.69812	-0.71503	24.2	13111	100
2025-3-20 10:50:35.588	WT901BLE68(490AABDC0D29)	-0.013	1.042	0.029	-28.381	5.554	26.917	86.17	-9.57	177.55	-3.038	-41.062	48.510	0.00208	-0.03549	-0.69812	-0.71503	24.2	13111	100
2025-3-20 10:50:35.600	WT901BLE68(E947F43FF2E9)	-0.198	2.252	0.807	10.254	-40.283	-56.396	75.97	11.19	-125.69	4.018	-62.916	-2.450	-0.19275	-0.28604	0.52576	0.77750	26.0	13111	100
2025-3-20 10:50:35.676	WT901BLE68(490AABDC0D29)	0.334	1.350	0.094	-27.222	33.081	-29.236	83.20	-9.27	179.47	-3.038	-41.062	48.510	0.00208	-0.03549	-0.69812	-0.71503	24.2	13111	100
2025-3-20 10:50:35.682	WT901BLE68(E947F43FF2E9)	-0.169	1.003	0.137	0.305	29.602	-2.930	76.38	15.84	-125.05	4.018	-62.916	-2.450	-0.19275	-0.28604	0.52576	0.77750	26.0	13111	100
2025-3-20 10:50:35.796	WT901BLE68(490AABDC0D29)	0.319	1.043	-0.055	-12.085	111.145	-7.935	81.09	-5.70	-174.74	-3.038	-41.062	48.510	0.09833	0.00766	-0.64343	-0.75906	24.2	13111	100
2025-3-20 10:50:35.805	WT901BLE68(E947F43FF2E9)	-0.223	0.964	0.059	8.606	6.958	7.996	77.76	16.59	-121.65	4.018	-62.916	-2.450	-0.30347	-0.40982	0.48898	0.70761	26.0	13111	100
2025-3-20 10:50:35.864	WT901BLE68(E947F43FF2E9)	-0.194	0.945	0.036	8.545	5.310	7.141	79.34	16.29	-119.21	4.018	-62.916	-2.450	-0.30347	-0.40982	0.48898	0.70761	26.0	13111	100
2025-3-20 10:50:35.887	WT901BLE68(490AABDC0D29)	0.101	1.509	-0.041	-36.072	193.665	121.338	77.93	-10.28	-163.78	-3.038	-41.062	48.510	0.09833	0.00766	-0.64343	-0.75906	24.2	13111	100
2025-3-20 10:50:35.982	WT901BLE68(E947F43FF2E9)	-0.174	1.022	0.059	13.977	-3.296	1.709	81.04	15.94	-117.59	3.626	-63.014	-0.196	-0.30347	-0.40982	0.48898	0.70761	26.0	13111	100
2025-3-20 10:50:36.7	WT901BLE68(490AABDC0D29)	-0.195	1.260	-0.087	-5.859	26.550	152.893	71.28	-21.73	-148.61	-26.558	-40.180	43.512	0.09833	0.00766	-0.64343	-0.75906	24.2	13111	100
2025-3-20 10:50:36.66	WT901BLE68(490AABDC0D29)	-0.246	0.631	0.097	66.223	-7.019	51.575	72.81	-30.39	-143.09	-26.558	-40.180	43.512	0.09833	0.00766	-0.64343	-0.75906	24.2	13111	100
2025-3-20 10:50:36.75	WT901BLE68(E947F43FF2E9)	-0.174	0.971	-0.017	2.563	3.723	11.047	82.27	15.10	-116.25	3.626	-63.014	-0.196	-0.30347	-0.40982	0.48898	0.70761	26.0	13111	100
2025-3-20 10:50:36.188	WT901BLE68(490AABDC0D29)	0.311	0.400	-0.056	129.333	-61.035	-101.257	86.80	-26.13	-148.75	-26.558	-40.180	43.512	0.29025	0.07440	-0.72183	-0.62375	24.2	13111	100
2025-3-20 10:50:36.199	WT901BLE68(E947F43FF2E9)	-0.057	1.009	0.005	4.944	-14.709	-0.488	83.01	14.40	-115.25	3.626	-63.014	-0.196	-0.32538	-0.43314	0.50790	0.66965	26.0	13111	100
2025-3-20 10:50:36.276	WT901BLE68(490AABDC0D29)	0.958	0.736	0.173	103.088	39.307	-176.636	98.50	-9.12	-147.86	-26.558	-40.180	43.512	0.29025	0.07440	-0.72183	-0.62375	24.2	13111	100
2025-3-20 10:50:36.283	WT901BLE68(E947F43FF2E9)	-0.188	0.989	-0.020	-2.136	-4.211	-5.127	83.58	14.50	-115.07	3.626	-63.014	-0.196	-0.32538	-0.43314	0.50790	0.66965	26.0	13111	100
2025-3-20 10:50:36.399	WT901BLE68(490AABDC0D29)	-0.067	1.098	0.538	17.456	61.890	-85.022	103.08	2.63	-141.67	-13.524	-32.928	66.934	0.29025	0.07440	-0.72183	-0.62375	24.2	13111	100
2025-3-20 10:50:36.405	WT901BLE68(E947F43FF2E9)	-0.254	0.977	-0.020	3.540	-2.014	-18.311	84.16	15.56	-114.31	4.704	-63.504	1.274	-0.32538	-0.43314	0.50790	0.66965	26.0	13111	100
2025-3-20 10:50:36.464	WT901BLE68(E947F43FF2E9)	-0.033	1.082	-0.033	-5.554	0.549	-9.705	84.55	16.77	-113.10	4.704	-63.504	1.274	-0.32538	-0.43314	0.50790	0.66965	26.0	13111	100
2025-3-20 10:50:36.487	WT901BLE68(490AABDC0D29)	0.176	1.018	-0.829	-29.053	-11.963	24.231	98.06	1.53	-144.51	-13.524	-32.928	66.934	0.29025	0.07440	-0.72183	-0.62375	24.2	13111	100
2025-3-20 10:50:36.585	WT901BLE68(E947F43FF2E9)	-0.081	0.604	0.045	-20.630	-2.075	-5.188	83.11	16.49	-112.44	4.704	-63.504	1.274	-0.33377	-0.45227	0.47556	0.67657	26.0	13111	100
2025-3-20 10:50:36.607	WT901BLE68(490AABDC0D29)	0.114	1.014	-0.035	-37.903	-7.813	10.437	92.89	-0.35	-147.56	-13.524	-32.928	66.934	0.19186	0.18503	-0.69135	-0.67148	24.2	13111	100
2025-3-20 10:50:36.666	WT901BLE68(490AABDC0D29)	0.153	0.983	-0.066	3.418	-0.061	3.723	91.33	-1.30	-149.79	-13.524	-32.928	66.934	0.19186	0.18503	-0.69135	-0.67148	24.2	13111	100
2025-3-20 10:50:36.675	WT901BLE68(E947F43FF2E9)	-0.322	1.227	0.266	-20.325	-11.169	-28.870	80.91	17.64	-113.98	4.704	-63.504	1.274	-0.33377	-0.45227	0.47556	0.67657	26.0	13111	100
2025-3-20 10:50:36.788	WT901BLE68(490AABDC0D29)	0.173	0.992	-0.135	9.277	25.818	2.869	92.33	-2.24	-149.12	-13.916	-35.476	63.798	0.19186	0.18503	-0.69135	-0.67148	24.2	13111	100
2025-3-20 10:50:36.800	WT901BLE68(E947F43FF2E9)	-0.332	1.137	-0.021	-71.533	143.127	-107.605	76.85	22.80	-116.88	17.836	-63.112	-7.448	-0.33377	-0.45227	0.47556	0.67657	26.0	13111	100
2025-3-20 10:50:36.876	WT901BLE68(490AABDC0D29)	0.090	0.981	-0.109	4.822	11.963	-12.878	92.67	-2.26	-149.10	-13.916	-35.476	63.798	0.19186	0.18503	-0.69135	-0.67148	24.2	13111	100
2025-3-20 10:50:36.885	WT901BLE68(E947F43FF2E9)	-0.204	1.407	-0.071	-65.430	51.636	-171.448	76.40	38.90	-102.29	17.836	-63.112	-7.448	-0.33377	-0.45227	0.47556	0.67657	26.0	13111	100
2025-3-20 10:50:37.1	WT901BLE68(490AABDC0D29)	0.042	0.982	-0.148	-1.404	10.620	-24.170	93.10	-0.89	-149.14	-13.916	-35.476	63.798	0.18271	0.19180	-0.69977	-0.66336	24.2	13111	100
2025-3-20 10:50:37.5	WT901BLE68(E947F43FF2E9)	-0.071	1.002	-0.175	-71.960	52.368	-98.511	73.55	54.56	-94.25	17.836	-63.112	-7.448	-0.33047	-0.68375	0.04346	0.64908	26.0	13111	100
2025-3-20 10:50:37.86	WT901BLE68(490AABDC0D29)	0.035	0.992	-0.119	-5.554	6.104	-15.564	92.85	0.77	-149.60	-13.916	-35.476	63.798	0.18271	0.19180	-0.69977	-0.66336	24.2	13111	100
2025-3-20 10:50:37.94	WT901BLE68(E947F43FF2E9)	-0.414	0.263	-0.399	-71.167	151.978	81.604	86.52	58.41	-66.88	17.836	-63.112	-7.448	-0.33047	-0.68375	0.04346	0.64908	26.0	13111	100
2025-3-20 10:50:37.207	WT901BLE68(490AABDC0D29)	0.062	1.013	-0.122	-9.216	3.601	5.188	92.38	1.05	-150.32	-13.034	-35.476	64.092	0.18271	0.19180	-0.69977	-0.66336	24.2	13111	100
2025-3-20 10:50:37.215	WT901BLE68(E947F43FF2E9)	-0.838	0.382	-0.484	-58.655	124.084	172.119	101.40	43.27	-37.90	29.792	-58.310	-14.896	-0.33047	-0.68375	0.04346	0.64908	26.0	13111	100
2025-3-20 10:50:37.273	WT901BLE68(E947F43FF2E9)	-1.043	0.527	-0.180	-46.326	83.374	152.893	102.54	24.62	-27.14	29.792	-58.310	-14.896	-0.33047	-0.68375	0.04346	0.64908	26.0	13111	100
2025-3-20 10:50:37.310	WT901BLE68(490AABDC0D29)	0.155	1.015	-0.107	-10.376	10.986	32.654	91.57	-0.97	-150.64	-13.034	-35.476	64.092	0.18271	0.19180	-0.69977	-0.66336	24.2	13111	100
2025-3-20 10:50:37.395	WT901BLE68(E947F43FF2E9)	0.206	0.467	-0.049	-39.368	42.664	38.879	100.51	15.58	-22.86	29.792	-58.310	-14.896	-0.59933	-0.76602	0.04764	0.22723	26.0	13111	100
2025-3-20 10:50:37.448	WT901BLE68(490AABDC0D29)	0.205	0.995	-0.080	-2.747	9.155	40.344	91.00	-4.64	-150.82	-13.034	-35.476	64.092	0.22107	0.12671	-0.69711	-0.67007	24.2	13111	100
2025-3-20 10:50:37.483	WT901BLE68(E947F43FF2E9)	-0.224	1.058	0.223	-1.160	-2.258	-41.992	100.48	18.58	-22.04	29.792	-58.310	-14.896	-0.59933	-0.76602	0.04764	0.22723	26.0	13111	100
2025-3-20 10:50:37.510	WT901BLE68(490AABDC0D29)	0.104	1.138	-0.089	-23.621	-3.235	28.198	90.13	-8.10	-151.53	-13.034	-35.476	64.092	0.22107	0.12671	-0.69711	-0.67007	24.2	13111	100
2025-3-20 10:50:37.607	WT901BLE68(490AABDC0D29)	0.519	1.358	-0.034	-26.001	30.396	-17.273	87.57	-8.80	-150.89	-21.168	-36.652	60.074	0.22107	0.12671	-0.69711	-0.67007	24.2	13111	100
2025-3-20 10:50:37.607	WT901BLE68(E947F43FF2E9)	-0.214	0.992	0.098	7.568	5.005	8.118	100.34	20.16	-20.76	25.284	-58.996	-16.954	-0.59933	-0.76602	0.04764	0.22723	26.0	13111	100
2025-3-20 10:50:37.686	WT901BLE68(490AABDC0D29)	0.315	1.137	-0.385	2.808	120.361	13.916	85.75	-6.68	-143.79	-21.168	-36.652	60.074	0.22107	0.12671	-0.69711	-0.67007	24.2	13111	100
2025-3-20 10:50:37.695	WT901BLE68(E947F43FF2E9)	-0.127	1.006	-0.104	10.193	13.489	24.048	101.19	18.35	-18.93	25.284	-58.996	-16.954	-0.59933	-0.76602	0.04764	0.22723	26.0	13111	100
2025-3-20 10:50:37.807	WT901BLE68(490AABDC0D29)	-0.152	1.608	0.208	-20.813	179.382	147.888	84.02	-15.89	-130.01	-21.168	-36.652	60.074	0.46765	0.17194	-0.62823	-0.59744	24.2	13111	100
2025-3-20 10:50:37.815	WT901BLE68(E947F43FF2E9)	-0.126	0.976	-0.070	5.249	7.751	9.949	101.22	15.99	-15.82	25.284	-58.996	-16.954	-0.61108	-0.77267	0.00723	0.17142	26.0	13111	100
2025-3-20 10:50:37.874	WT901BLE68(E947F43FF2E9)	-0.127	0.990	-0.114	1.709	1.709	6.836	101.59	14.72	-12.93	25.284	-58.996	-16.954	-0.61108	-0.77267	0.00723	0.17142	26.0	13111	100
2025-3-20 10:50:37.897	WT901BLE68(490AABDC0D29)	-0.150	0.976	0.066	-8.484	32.104	110.291	78.61	-27.86	-120.06	-21.168	-36.652	60.074	0.46765	0.17194	-0.62823	-0.59744	24.2	13111	100
2025-3-20 10:50:37.995	WT901BLE68(E947F43FF2E9)	-0.139	0.984	-0.082	-2.380	1.831	-2.319	101.09	13.89	-10.09	25.284	-58.996	-16.954	-0.61108	-0.77267	0.00723	0.17142	26.0	13111	100
2025-3-20 10:50:38.17	WT901BLE68(490AABDC0D29)	0.040	0.385	0.016	49.500	-17.334	-44.189	81.22	-28.51	-120.98	-45.276	-27.244	49.392	0.46765	0.17194	-0.62823	-0.59744	24.2	13111	100
2025-3-20 10:50:38.76	WT901BLE68(490AABDC0D29)	0.544	0.421	0.014	90.393	16.907	-163.574	89.07	-15.14	-122.10	-45.276	-27.244	49.392	0.46765	0.17194	-0.62823	-0.59744	24.2	13111	100
2025-3-20 10:50:38.85	WT901BLE68(E947F43FF2E9)	-0.155	0.997	-0.083	-7.629	-6.165	-6.409	100.32	13.77	-7.48	23.324	-59.976	-15.974	-0.61108	-0.77267	0.00723	0.17142	26.0	13111	100
2025-3-20 10:50:38.197	WT901BLE68(490AABDC0D29)	1.356	0.859	0.333	97.839	95.947	-148.621	98.24	0.77	-115.87	-45.276	-27.244	49.392	0.33975	0.47290	-0.60794	-0.53964	24.2	13111	100
2025-3-20 10:50:38.206	WT901BLE68(E947F43FF2E9)	-0.191	0.991	-0.055	-7.019	2.502	-14.099	99.39	14.37	-4.98	23.324	-59.976	-15.974	-0.64258	-0.75409	-0.06985	0.11600	26.0	13111	100
2025-3-20 10:50:38.287	WT901BLE68(490AABDC0D29)	0.091	1.238	0.278	1.221	24.963	-4.150	100.22	5.66	-108.47	-45.276	-27.244	49.392	0.33975	0.47290	-0.60794	-0.53964	24.2	13111	100
2025-3-20 10:50:38.295	WT901BLE68(E947F43FF2E9)	-0.253	0.977	-0.074	-8.240	0.854	-22.339	98.61	15.69	-2.04	23.324	-59.976	-15.974	-0.64258	-0.75409	-0.06985	0.11600	26.0	13111	100
2025-3-20 10:50:38.410	WT901BLE68(490AABDC0D29)	0.219	0.793	0.015	-15.015	-27.161	35.339	97.54	1.19	-113.41	-34.888	-34.986	54.390	0.33975	0.47290	-0.60794	-0.53964	24.2	13111	100
2025-3-20 10:50:38.414	WT901BLE68(E947F43FF2E9)	-0.168	1.020	-0.040	-11.230	-18.188	-10.620	97.31	17.18	-0.75	26.362	-58.016	-18.522	-0.64258	-0.75409	-0.06985	0.11600	26.0	13111	100
2025-3-20 10:50:38.496	WT901BLE68(490AABDC0D29)	0.200	0.990	-0.110	-10.925	-10.681	27.161	95.41	-2.09	-118.23	-34.888	-34.986	54.390	0.33975	0.47290	-0.60794	-0.53964	24.2	13111	100
2025-3-20 10:50:38.534	WT901BLE68(E947F43FF2E9)	-0.061	1.240	0.100	-27.222	-4.517	-11.475	94.53	18.00	-0.15	26.362	-58.016	-18.522	-0.64258	-0.75409	-0.06985	0.11600	26.0	13111	100
2025-3-20 10:50:38.617	WT901BLE68(490AABDC0D29)	0.188	0.986	-0.092	3.296	3.784	4.395	94.71	-4.13	-120.48	-34.888	-34.986	54.390	0.35611	0.33914	-0.65677	-0.57159	24.2	13111	100
2025-3-20 10:50:38.625	WT901BLE68(E947F43FF2E9)	-0.307	1.269	0.132	-22.278	-12.634	-35.156	91.90	19.87	2.52	26.362	-58.016	-18.522	-0.70605	-0.67746	-0.16306	0.12576	26.0	13111	100
2025-3-20 10:50:38.683	WT901BLE68(E947F43FF2E9)	-0.591	1.196	0.110	-44.617	2.625	-69.092	87.98	23.92	2.85	26.362	-58.016	-18.522	-0.70605	-0.67746	-0.16306	0.12576	26.0	13111	100
2025-3-20 10:50:38.716	WT901BLE68(490AABDC0D29)	0.167	0.991	-0.164	8.972	12.451	-3.296	95.48	-4.62	-121.26	-34.888	-34.986	54.390	0.35611	0.33914	-0.65677	-0.57159	24.2	13111	100
2025-3-20 10:50:38.812	WT901BLE68(E947F43FF2E9)	-0.112	1.301	-0.138	-54.260	69.336	-113.220	87.53	32.23	16.13	41.944	-46.060	-22.736	-0.70605	-0.67746	-0.16306	0.12576	26.0	13111	100
2025-3-20 10:50:38.827	WT901BLE68(490AABDC0D29)	0.144	0.994	-0.126	1.221	8.972	-10.071	95.69	-4.42	-121.99	-36.848	-33.614	53.900	0.35611	0.33914	-0.65677	-0.57159	24.2	13111	100
2025-3-20 10:50:38.886	WT901BLE68(490AABDC0D29)	0.102	0.975	-0.166	2.380	15.015	-13.733	95.83	-3.75	-122.20	-36.848	-33.614	53.900	0.35611	0.33914	-0.65677	-0.57159	24.2	13111	100
2025-3-20 10:50:38.895	WT901BLE68(E947F43FF2E9)	-0.055	1.065	-0.102	-51.514	14.526	-47.852	84.02	39.18	20.50	41.944	-46.060	-22.736	-0.70605	-0.67746	-0.16306	0.12576	26.0	13111	100
2025-3-20 10:50:39.13	WT901BLE68(490AABDC0D29)	0.101	0.971	-0.160	-2.258	15.625	-9.155	95.82	-3.02	-122.13	-36.848	-33.614	53.900	0.34192	0.34344	-0.65594	-0.57858	24.2	13111	100
2025-3-20 10:50:39.14	WT901BLE68(E947F43FF2E9)	-0.314	0.653	-0.396	-23.865	119.629	91.064	85.77	36.93	30.15	41.944	-46.060	-22.736	-0.68311	-0.60556	-0.39563	-0.10028	26.0	13111	100
2025-3-20 10:50:39.118	WT901BLE68(E947F43FF2E9)	-0.498	0.813	-0.434	29.053	101.990	188.110	94.09	21.91	44.31	41.944	-46.060	-22.736	-0.68311	-0.60556	-0.39563	-0.10028	26.0	13111	100
2025-3-20 10:50:39.127	WT901BLE68(490AABDC0D29)	0.091	0.990	-0.135	-7.141	12.146	1.831	95.41	-3.03	-122.09	-36.848	-33.614	53.900	0.34192	0.34344	-0.65594	-0.57858	24.2	13111	100
2025-3-20 10:50:39.217	WT901BLE68(490AABDC0D29)	0.146	1.019	-0.136	-9.399	6.836	20.020	94.70	-4.30	-122.59	-38.220	-33.712	51.156	0.34192	0.34344	-0.65594	-0.57858	24.2	13111	100
2025-3-20 10:50:39.224	WT901BLE68(E947F43FF2E9)	-0.637	0.895	-0.277	32.654	83.618	211.670	100.39	0.45	51.76	26.264	-65.366	-4.998	-0.68311	-0.60556	-0.39563	-0.10028	26.0	13111	100
2025-3-20 10:50:39.283	WT901BLE68(E947F43FF2E9)	-0.827	0.865	-0.012	33.630	36.133	129.395	104.85	-16.39	50.13	26.264	-65.366	-4.998	-0.68311	-0.60556	-0.39563	-0.10028	26.0	13111	100
2025-3-20 10:50:39.319	WT901BLE68(490AABDC0D29)	0.217	0.877	-0.090	-7.385	6.042	32.410	93.98	-6.99	-123.39	-38.220	-33.712	51.156	0.34192	0.34344	-0.65594	-0.57858	24.2	13111	100
2025-3-20 10:50:39.415	WT901BLE68(E947F43FF2E9)	0.202	1.094	0.159	-4.700	124.268	-46.570	107.39	-22.04	47.80	26.264	-65.366	-4.998	-0.68311	-0.60556	-0.39563	-0.10028	26.0	13111	100
2025-3-20 10:50:39.428	WT901BLE68(490AABDC0D29)	0.291	1.017	-0.130	-2.563	3.174	38.147	93.79	-10.54	-124.51	-38.220	-33.712	51.156	0.38849	0.25339	-0.68036	-0.56735	24.2	13111	100
2025-3-20 10:50:39.485	WT901BLE68(490AABDC0D29)	0.294	1.097	-0.088	-12.939	-5.737	39.001	93.10	-14.33	-126.13	-38.220	-33.712	51.156	0.38849	0.25339	-0.68036	-0.56735	24.2	13111	100
2025-3-20 10:50:39.495	WT901BLE68(E947F43FF2E9)	0.275	1.429	0.159	-38.208	36.743	-59.082	102.02	-17.78	58.40	26.264	-65.366	-4.998	-0.48398	-0.71774	-0.28970	-0.40808	26.0	13111	100
2025-3-20 10:50:39.616	WT901BLE68(490AABDC0D29)	0.305	0.981	-0.176	-22.705	20.569	15.564	91.21	-17.16	-126.46	-45.962	-28.812	47.138	0.38849	0.25339	-0.68036	-0.56735	24.2	13111	100
2025-3-20 10:50:39.617	WT901BLE68(E947F43FF2E9)	-0.036	1.083	0.036	0.854	0.671	-48.584	99.13	-13.24	66.90	29.596	-65.170	-1.470	-0.48398	-0.71774	-0.28970	-0.40808	26.0	13111	100
2025-3-20 10:50:39.696	WT901BLE68(490AABDC0D29)	0.522	0.957	-0.082	-4.883	85.754	-9.888	89.03	-17.13	-122.06	-45.962	-28.812	47.138	0.38849	0.25339	-0.68036	-0.56735	24.2	13111	100
2025-3-20 10:50:39.720	WT901BLE68(E947F43FF2E9)	-0.029	0.980	0.017	-3.052	30.762	-48.645	97.86	-8.40	71.65	29.596	-65.170	-1.470	-0.48398	-0.71774	-0.28970	-0.40808	26.0	13111	100
2025-3-20 10:50:39.817	WT901BLE68(490AABDC0D29)	0.653	1.091	-0.407	20.142	91.431	60.669	87.30	-19.54	-112.47	-45.962	-28.812	47.138	0.54980	0.26248	-0.64478	-0.46146	24.2	13111	100
2025-3-20 10:50:39.825	WT901BLE68(E947F43FF2E9)	-0.080	1.021	0.016	-5.127	-0.610	-39.612	97.01	-3.97	73.71	29.596	-65.170	-1.470	-0.52502	-0.59442	-0.44565	-0.41504	26.0	13111	100
2025-3-20 10:50:39.906	WT901BLE68(490AABDC0D29)	-0.039	1.400	-0.107	54.260	52.673	160.522	88.74	-31.72	-105.79	-45.962	-28.812	47.138	0.54980	0.26248	-0.64478	-0.46146	24.2	13111	100
2025-3-20 10:50:39.915	WT901BLE68(E947F43FF2E9)	-0.060	0.998	0.031	-8.972	-5.859	-16.724	95.78	-1.16	75.11	29.596	-65.170	-1.470	-0.52502	-0.59442	-0.44565	-0.41504	26.0	13111	100
2025-3-20 10:50:40.26	WT901BLE68(490AABDC0D29)	-0.252	0.847	0.225	43.579	46.021	101.074	87.74	-44.81	-97.59	-57.722	-9.310	30.282	0.54980	0.26248	-0.64478	-0.46146	24.2	13111	100
2025-3-20 10:50:40.35	WT901BLE68(E947F43FF2E9)	-0.093	0.987	0.009	-10.498	3.540	-18.250	94.46	0.57	75.99	39.788	-60.760	-2.744	-0.52502	-0.59442	-0.44565	-0.41504	26.0	13111	100
2025-3-20 10:50:40.104	WT901BLE68(E947F43FF2E9)	-0.128	0.983	0.065	-9.216	-2.258	-21.057	93.08	2.67	76.54	39.788	-60.760	-2.744	-0.52502	-0.59442	-0.44565	-0.41504	26.0	13111	100
2025-3-20 10:50:40.117	WT901BLE68(490AABDC0D29)	-0.014	0.492	0.181	28.625	20.386	-68.970	89.56	-44.90	-95.86	-57.722	-9.310	30.282	0.54980	0.26248	-0.64478	-0.46146	24.2	13111	100
2025-3-20 10:50:40.213	WT901BLE68(E947F43FF2E9)	-0.148	0.997	0.064	-6.409	-11.536	-23.193	91.99	5.02	76.48	39.788	-60.760	-2.744	-0.52502	-0.59442	-0.44565	-0.41504	26.0	13111	100
2025-3-20 10:50:40.238	WT901BLE68(490AABDC0D29)	0.137	0.826	-0.066	35.645	7.568	-217.651	91.64	-27.92	-95.98	-57.722	-9.310	30.282	0.51688	0.44278	-0.57773	-0.45047	24.2	13111	100
2025-3-20 10:50:40.304	WT901BLE68(490AABDC0D29)	0.036	1.341	-0.135	73.120	111.511	-268.860	95.13	-2.23	-91.25	-57.722	-9.310	30.282	0.51688	0.44278	-0.57773	-0.45047	24.2	13111	100
2025-3-20 10:50:40.305	WT901BLE68(E947F43FF2E9)	-0.216	0.987	0.066	-8.667	-2.991	-23.315	90.91	7.36	76.60	39.788	-60.760	-2.744	-0.57828	-0.52933	-0.47656	-0.39774	26.0	13111	100
2025-3-20 10:50:40.417	WT901BLE68(490AABDC0D29)	1.604	1.736	0.300	117.920	27.283	-229.614	106.78	20.74	-79.84	-11.270	-45.668	37.534	0.51688	0.44278	-0.57773	-0.45047	24.2	13111	100
2025-3-20 10:50:40.424	WT901BLE68(E947F43FF2E9)	-0.245	0.979	0.078	-8.240	-0.732	-24.231	89.84	9.82	77.39	46.256	-55.958	-5.292	-0.57828	-0.52933	-0.47656	-0.39774	26.0	13111	100
2025-3-20 10:50:40.505	WT901BLE68(490AABDC0D29)	0.964	1.295	0.510	-43.274	-16.113	62.622	108.84	35.93	-86.52	-11.270	-45.668	37.534	0.51688	0.44278	-0.57773	-0.45047	24.2	13111	100
2025-3-20 10:50:40.513	WT901BLE68(E947F43FF2E9)	-0.360	0.989	0.066	-13.733	4.456	-38.452	88.48	12.89	78.13	46.256	-55.958	-5.292	-0.57828	-0.52933	-0.47656	-0.39774	26.0	13111	100
2025-3-20 10:50:40.628	WT901BLE68(490AABDC0D29)	-0.053	1.652	-0.253	-15.747	-5.920	108.948	101.32	28.04	-94.80	-11.270	-45.668	37.534	0.31094	0.58401	-0.48196	-0.57431	24.2	13111	100
2025-3-20 10:50:40.635	WT901BLE68(E947F43FF2E9)	-0.352	1.168	0.121	-23.743	-5.249	-74.402	86.47	18.41	78.50	46.256	-55.958	-5.292	-0.65952	-0.41132	-0.52512	-0.34637	26.0	13111	100
2025-3-20 10:50:40.706	WT901BLE68(E947F43FF2E9)	-0.285	1.121	0.123	-31.250	-23.132	-58.350	82.64	24.57	76.52	46.256	-55.958	-5.292	-0.65952	-0.41132	-0.52512	-0.34637	26.0	13111	100
2025-3-20 10:50:40.715	WT901BLE68(490AABDC0D29)	-0.137	1.037	-0.115	-10.498	-14.771	52.002	98.64	20.67	-98.63	-11.270	-45.668	37.534	0.31094	0.58401	-0.48196	-0.57431	24.2	13111	100
2025-3-20 10:50:40.813	WT901BLE68(E947F43FF2E9)	0.241	0.953	-0.026	-33.691	-77.087	-98.938	76.28	30.66	69.93	46.256	-55.958	-5.292	-0.65952	-0.41132	-0.52512	-0.34637	26.0	13111	100
2025-3-20 10:50:40.837	WT901BLE68(490AABDC0D29)	-0.037	0.951	-0.200	-6.287	-6.165	37.354	97.68	15.97	-101.20	-24.010	-44.492	34.202	0.31094	0.58401	-0.48196	-0.57431	24.2	13111	100
2025-3-20 10:50:40.906	WT901BLE68(490AABDC0D29)	-0.027	0.979	-0.152	-5.493	-0.671	30.457	96.93	12.28	-103.83	-24.010	-44.492	34.202	0.31094	0.58401	-0.48196	-0.57431	24.2	13111	100
2025-3-20 10:50:40.907	WT901BLE68(E947F43FF2E9)	-0.031	0.704	0.061	-21.301	64.758	-10.315	71.97	33.70	64.74	56.546	-37.730	-16.562	-0.65952	-0.41132	-0.52512	-0.34637	26.0	13111	100
2025-3-20 10:50:41.15	WT901BLE68(490AABDC0D29)	-0.008	0.995	-0.179	-10.315	7.507	25.085	96.44	9.17	-105.09	-24.010	-44.492	34.202	0.31094	0.58401	-0.48196	-0.57431	24.2	13111	100
2025-3-20 10:50:41.23	WT901BLE68(E947F43FF2E9)	-0.241	0.785	0.082	29.114	33.508	90.576	77.60	28.84	72.69	56.546	-37.730	-16.562	-0.65952	-0.41132	-0.52512	-0.34637	26.0	13111	100
2025-3-20 10:50:41.113	WT901BLE68(E947F43FF2E9)	-0.142	1.051	0.087	74.768	-15.137	182.678	84.97	13.14	76.74	56.546	-37.730	-16.562	-0.61307	-0.48715	-0.47607	-0.40009	26.0	13111	100
2025-3-20 10:50:41.205	WT901BLE68(490AABDC0D29)	0.071	0.979	-0.163	-18.982	1.709	28.381	95.07	6.22	-106.44	-24.010	-44.492	34.202	0.37152	0.47034	-0.56802	-0.56390	24.2	13111	100
2025-3-20 10:50:41.227	WT901BLE68(490AABDC0D29)	0.145	0.998	-0.111	-21.545	-0.610	33.325	93.20	2.81	-108.09	-24.010	-44.492	34.202	0.37152	0.47034	-0.56802	-0.56390	24.2	13111	100
2025-3-20 10:50:41.235	WT901BLE68(E947F43FF2E9)	-0.522	1.430	0.322	93.140	-21.545	206.421	93.96	-6.47	75.12	26.166	-65.856	1.960	-0.61307	-0.48715	-0.47607	-0.40009	26.0	13111	100
2025-3-20 10:50:41.315	WT901BLE68(490AABDC0D29)	0.167	1.005	-0.069	-23.010	3.479	37.048	91.17	-1.01	-109.51	-33.614	-40.180	29.596	0.37152	0.47034	-0.56802	-0.56390	24.2	13111	100
2025-3-20 10:50:41.325	WT901BLE68(E947F43FF2E9)	-1.087	1.313	0.384	45.532	40.100	149.902	100.06	-24.99	76.33	26.166	-65.856	1.960	-0.61307	-0.48715	-0.47607	-0.40009	26.0	13111	100
2025-3-20 10:50:41.438	WT901BLE68(490AABDC0D29)	0.122	1.063	-0.075	-34.912	6.653	52.734	88.53	-5.69	-110.12	-33.614	-40.180	29.596	0.48053	0.32562	-0.59250	-0.55844	24.2	13111	100
2025-3-20 10:50:41.445	WT901BLE68(E947F43FF2E9)	0.372	1.124	0.206	-44.617	35.889	-144.531	94.55	-25.82	87.31	26.166	-65.856	1.960	-0.41568	-0.58496	-0.42072	-0.55490	26.0	13111	100
2025-3-20 10:50:41.511	WT901BLE68(E947F43FF2E9)	0.033	1.107	-0.332	-0.916	4.883	-60.852	92.27	-17.07	88.29	26.166	-65.856	1.960	-0.41568	-0.58496	-0.42072	-0.55490	26.0	13111	100
2025-3-20 10:50:41.527	WT901BLE68(490AABDC0D29)	0.094	1.503	0.066	-55.603	12.878	100.830	84.13	-13.32	-109.25	-33.614	-40.180	29.596	0.48053	0.32562	-0.59250	-0.55844	24.2	13111	100
2025-3-20 10:50:41.625	WT901BLE68(E947F43FF2E9)	-0.036	0.975	-0.034	-3.235	7.324	-47.607	91.48	-9.99	90.11	26.166	-65.856	1.960	-0.41568	-0.58496	-0.42072	-0.55490	26.0	13111	100
2025-3-20 10:50:41.648	WT901BLE68(490AABDC0D29)	-0.203	1.057	-0.151	-67.444	99.548	105.896	76.19	-23.15	-103.28	-46.256	-20.972	12.838	0.48053	0.32562	-0.59250	-0.55844	24.2	13111	100
2025-3-20 10:50:41.709	WT901BLE68(490AABDC0D29)	-0.060	0.477	-0.010	-33.020	17.212	-23.621	68.30	-26.40	-95.38	-46.256	-20.972	12.838	0.48053	0.32562	-0.59250	-0.55844	24.2	13111	100
2025-3-20 10:50:41.714	WT901BLE68(E947F43FF2E9)	-0.062	1.029	-0.053	-6.653	-0.183	-40.527	91.25	-5.00	90.47	31.360	-65.268	3.724	-0.41568	-0.58496	-0.42072	-0.55490	26.0	13111	100
2025-3-20 10:50:41.827	WT901BLE68(490AABDC0D29)	-0.070	0.736	-0.026	59.875	-32.593	-128.784	73.43	-19.57	-101.36	-46.256	-20.972	12.838	0.48053	0.32562	-0.59250	-0.55844	24.2	13111	100
2025-3-20 10:50:41.835	WT901BLE68(E947F43FF2E9)	-0.104	0.993	-0.051	-8.301	6.287	-29.480	90.59	-1.31	90.85	31.360	-65.268	3.724	-0.41568	-0.58496	-0.42072	-0.55490	26.0	13111	100
2025-3-20 10:50:41.915	WT901BLE68(490AABDC0D29)	-0.007	1.105	0.142	102.234	-2.441	-196.472	83.82	-3.43	-106.16	-46.256	-20.972	12.838	0.45572	0.38986	-0.54663	-0.58429	24.2	13111	100
2025-3-20 10:50:41.925	WT901BLE68(E947F43FF2E9)	-0.140	0.991	-0.030	-11.292	-6.653	-24.780	89.72	1.49	90.73	31.360	-65.268	3.724	-0.50729	-0.48706	-0.50894	-0.49628	26.0	13111	100
2025-3-20 10:50:42.37	WT901BLE68(490AABDC0D29)	1.635	1.570	0.169	109.070	4.211	-226.746	94.58	17.71	-108.23	-11.858	-45.472	34.104	0.45572	0.38986	-0.54663	-0.58429	24.2	13111	100
2025-3-20 10:50:42.44	WT901BLE68(E947F43FF2E9)	-0.150	0.994	-0.022	-14.771	-10.803	-26.367	88.59	4.06	89.82	40.278	-61.152	0.196	-0.50729	-0.48706	-0.50894	-0.49628	26.0	13111	100
2025-3-20 10:50:42.112	WT901BLE68(E947F43FF2E9)	-0.237	1.025	0.025	-22.949	-16.113	-42.664	86.81	7.33	88.28	40.278	-61.152	0.196	-0.50729	-0.48706	-0.50894	-0.49628	26.0	13111	100
2025-3-20 10:50:42.127	WT901BLE68(490AABDC0D29)	0.002	1.354	0.644	-1.648	-25.635	11.108	100.91	32.21	-110.00	-11.858	-45.472	34.104	0.45572	0.38986	-0.54663	-0.58429	24.2	13111	100
2025-3-20 10:50:42.224	WT901BLE68(E947F43FF2E9)	-0.146	1.298	0.087	-38.513	-28.931	-75.134	83.57	12.99	86.15	40.278	-61.152	0.196	-0.50729	-0.48706	-0.50894	-0.49628	26.0	13111	100
2025-3-20 10:50:42.247	WT901BLE68(490AABDC0D29)	-0.054	1.236	-0.219	-9.033	-64.880	110.046	94.53	21.99	-116.50	-11.858	-45.472	34.104	0.26727	0.41830	-0.58563	-0.64072	24.2	13111	100
2025-3-20 10:50:42.311	WT901BLE68(490AABDC0D29)	-0.017	0.941	-0.055	-7.507	-1.221	57.312	91.99	12.22	-121.57	-11.858	-45.472	34.104	0.26727	0.41830	-0.58563	-0.64072	24.2	13111	100
2025-3-20 10:50:42.314	WT901BLE68(E947F43FF2E9)	-0.274	1.450	-0.024	-73.669	-55.481	-138.611	76.88	22.45	80.30	40.278	-61.152	0.196	-0.66519	-0.36777	-0.50974	-0.40286	26.0	13111	100
2025-3-20 10:50:42.426	WT901BLE68(490AABDC0D29)	0.016	1.002	-0.134	5.737	-2.686	33.264	91.86	7.45	-123.91	-11.858	-45.472	34.104	0.26727	0.41830	-0.58563	-0.64072	24.2	13111	100
2025-3-20 10:50:42.435	WT901BLE68(E947F43FF2E9)	-0.090	0.616	-0.090	-40.222	12.817	-53.955	69.19	29.47	72.73	40.278	-61.152	0.196	-0.66519	-0.36777	-0.50974	-0.40286	26.0	13111	100
2025-3-20 10:50:42.515	WT901BLE68(490AABDC0D29)	0.045	0.977	-0.136	-4.028	4.639	23.621	92.05	4.37	-124.40	-27.538	-43.512	35.280	0.26727	0.41830	-0.58563	-0.64072	24.2	13111	100
2025-3-20 10:50:42.525	WT901BLE68(E947F43FF2E9)	-0.140	0.600	-0.099	20.325	22.156	99.670	74.34	26.10	81.40	52.234	-44.884	-12.446	-0.66519	-0.36777	-0.50974	-0.40286	26.0	13111	100
2025-3-20 10:50:42.638	WT901BLE68(490AABDC0D29)	0.112	1.010	-0.125	-11.292	5.310	28.564	91.57	1.59	-124.74	-27.538	-43.512	35.280	0.33011	0.32285	-0.63538	-0.61884	24.2	13111	100
2025-3-20 10:50:42.645	WT901BLE68(E947F43FF2E9)	-0.136	1.021	0.067	65.491	22.705	187.988	81.68	10.32	85.62	52.234	-44.884	-12.446	-0.66519	-0.36777	-0.50974	-0.40286	26.0	13111	100
2025-3-20 10:50:42.726	WT901BLE68(490AABDC0D29)	0.168	0.993	-0.105	-11.780	4.578	34.729	90.75	-1.86	-125.05	-27.538	-43.512	35.280	0.33011	0.32285	-0.63538	-0.61884	24.2	13111	100
2025-3-20 10:50:42.734	WT901BLE68(E947F43FF2E9)	-0.710	1.449	0.042	95.032	55.847	216.858	90.57	-9.52	90.39	52.234	-44.884	-12.446	-0.42801	-0.55508	-0.45544	-0.54874	26.0	13111	100
2025-3-20 10:50:42.848	WT901BLE68(490AABDC0D29)	0.191	1.011	-0.096	-17.029	8.789	37.415	89.64	-5.63	-125.16	-36.260	-38.808	31.262	0.33011	0.32285	-0.63538	-0.61884	24.2	13111	100
2025-3-20 10:50:42.855	WT901BLE68(E947F43FF2E9)	1.607	1.413	0.203	76.477	20.264	159.973	97.22	-27.91	94.17	17.346	-66.150	3.038	-0.42801	-0.55508	-0.45544	-0.54874	26.0	13111	100
2025-3-20 10:50:42.914	WT901BLE68(E947F43FF2E9)	-0.291	1.097	-0.240	-6.531	115.601	-77.393	91.82	-21.38	105.86	17.346	-66.150	3.038	-0.42801	-0.55508	-0.45544	-0.54874	26.0	13111	100
2025-3-20 10:50:42.937	WT901BLE68(490AABDC0D29)	0.018	1.181	-0.082	-27.039	10.864	59.875	87.73	-10.37	-124.75	-36.260	-38.808	31.262	0.33011	0.32285	-0.63538	-0.61884	24.2	13111	100
2025-3-20 10:50:43.34	WT901BLE68(E947F43FF2E9)	0.012	0.970	-0.045	-2.625	13.611	-79.590	90.00	-13.11	111.35	17.346	-66.150	3.038	-0.42801	-0.55508	-0.45544	-0.54874	26.0	13111	100
2025-3-20 10:50:43.58	WT901BLE68(490AABDC0D29)	0.595	1.684	-0.247	-43.457	49.500	140.442	83.63	-19.94	-121.47	-36.260	-38.808	31.262	0.57925	0.17307	-0.59015	-0.53488	24.2	13111	100
2025-3-20 10:50:43.116	WT901BLE68(490AABDC0D29)	-0.103	0.558	-0.026	-38.940	37.720	119.812	73.37	-30.37	-107.70	-36.260	-38.808	31.262	0.57925	0.17307	-0.59015	-0.53488	24.2	13111	100
2025-3-20 10:50:43.125	WT901BLE68(E947F43FF2E9)	-0.027	1.066	-0.083	-3.113	17.334	-49.255	89.60	-7.32	110.98	17.346	-66.150	3.038	-0.36566	-0.43408	-0.55484	-0.60818	26.0	13111	100
2025-3-20 10:50:43.238	WT901BLE68(490AABDC0D29)	-0.095	0.389	-0.114	16.968	-31.616	-64.392	73.61	-29.53	-108.78	-36.260	-38.808	31.262	0.57925	0.17307	-0.59015	-0.53488	24.2	13111	100
2025-3-20 10:50:43.245	WT901BLE68(E947F43FF2E9)	-0.063	0.988	-0.054	-8.362	2.075	-44.495	89.10	-1.93	110.46	17.346	-66.150	3.038	-0.36566	-0.43408	-0.55484	-0.60818	26.0	13111	100
2025-3-20 10:50:43.325	WT901BLE68(490AABDC0D29)	0.048	0.975	0.134	94.543	73.975	-221.497	81.24	-12.42	-109.51	-42.924	-29.106	19.992	0.57925	0.17307	-0.59015	-0.53488	24.2	13111	100
2025-3-20 10:50:43.334	WT901BLE68(E947F43FF2E9)	-0.146	1.006	-0.067	-13.977	-5.127	-38.330	88.31	1.86	108.95	35.476	-62.034	2.548	-0.36566	-0.43408	-0.55484	-0.60818	26.0	13111	100
2025-3-20 10:50:43.448	WT901BLE68(490AABDC0D29)	1.431	1.591	0.155	131.226	102.234	-240.662	92.70	12.17	-103.24	-42.924	-29.106	19.992	0.27942	0.63956	-0.45667	-0.55157	24.2	13111	100
2025-3-20 10:50:43.455	WT901BLE68(E947F43FF2E9)	-0.175	0.999	-0.040	-17.883	-1.404	-39.673	87.06	5.66	107.12	35.476	-62.034	2.548	-0.48788	-0.36047	-0.57367	-0.55026	26.0	13111	100
2025-3-20 10:50:43.517	WT901BLE68(E947F43FF2E9)	-0.131	1.049	0.022	-30.334	-3.174	-55.969	84.97	9.88	105.31	35.476	-62.034	2.548	-0.48788	-0.36047	-0.57367	-0.55026	26.0	13111	100
2025-3-20 10:50:43.537	WT901BLE68(490AABDC0D29)	0.090	1.387	1.005	34.302	21.729	-60.120	106.99	28.54	-90.23	-42.924	-29.106	19.992	0.27942	0.63956	-0.45667	-0.55157	24.2	13111	100
2025-3-20 10:50:43.633	WT901BLE68(E947F43FF2E9)	-0.094	1.744	0.072	-54.077	-16.907	-133.911	81.11	17.92	102.82	35.476	-62.034	2.548	-0.48788	-0.36047	-0.57367	-0.55026	26.0	13111	100
2025-3-20 10:50:43.659	WT901BLE68(490AABDC0D29)	-0.117	1.232	-0.161	-14.526	-51.880	96.497	98.50	23.97	-104.94	-15.288	-45.472	31.948	0.27942	0.63956	-0.45667	-0.55157	24.2	13111	100
2025-3-20 10:50:43.717	WT901BLE68(490AABDC0D29)	-0.028	0.987	-0.106	-14.771	6.592	47.424	94.58	15.73	-110.76	-15.288	-45.472	31.948	0.27942	0.63956	-0.45667	-0.55157	24.2	13111	100
2025-3-20 10:50:43.724	WT901BLE68(E947F43FF2E9)	-0.031	0.777	-0.213	-76.233	-45.410	-119.995	70.91	30.81	94.73	53.116	-46.648	-6.860	-0.48788	-0.36047	-0.57367	-0.55026	26.0	13111	100
2025-3-20 10:50:43.837	WT901BLE68(490AABDC0D29)	-0.065	0.983	-0.163	-11.475	-0.305	24.902	93.32	11.32	-113.46	-15.288	-45.472	31.948	0.27942	0.63956	-0.45667	-0.55157	24.2	13111	100
2025-3-20 10:50:43.845	WT901BLE68(E947F43FF2E9)	-0.053	0.539	-0.415	-25.269	182.800	62.439	68.96	34.44	97.81	53.116	-46.648	-6.860	-0.48788	-0.36047	-0.57367	-0.55026	26.0	13111	100
2025-3-20 10:50:43.926	WT901BLE68(490AABDC0D29)	0.021	0.983	-0.143	-14.893	9.216	23.682	92.16	8.54	-113.98	-15.288	-45.472	31.948	0.33179	0.43460	-0.57422	-0.60928	24.2	13111	100
2025-3-20 10:50:43.935	WT901BLE68(E947F43FF2E9)	-0.164	0.799	-0.070	12.695	56.274	212.891	76.81	22.00	110.96	53.116	-46.648	-6.860	-0.51981	-0.23346	-0.58585	-0.57617	26.0	13111	100
2025-3-20 10:50:44.47	WT901BLE68(490AABDC0D29)	0.048	0.988	-0.100	-14.099	0.854	33.386	90.94	5.27	-114.83	-15.288	-45.472	31.948	0.33179	0.43460	-0.57422	-0.60928	24.2	13111	100
2025-3-20 10:50:44.55	WT901BLE68(E947F43FF2E9)	-1.576	1.392	-0.012	69.275	23.376	255.371	83.88	-1.79	117.38	53.116	-46.648	-6.860	-0.51981	-0.23346	-0.58585	-0.57617	26.0	13111	100
2025-3-20 10:50:44.136	WT901BLE68(490AABDC0D29)	0.070	1.010	-0.112	-17.151	3.174	43.579	89.74	1.33	-115.72	-26.852	-42.238	27.440	0.33179	0.43460	-0.57422	-0.60928	24.2	13111	100
2025-3-20 10:50:44.145	WT901BLE68(E947F43FF2E9)	7.065	1.539	0.138	47.668	87.830	165.100	88.62	-24.43	123.21	22.246	-65.758	8.330	-0.51981	-0.23346	-0.58585	-0.57617	26.0	13111	100
2025-3-20 10:50:44.257	WT901BLE68(490AABDC0D29)	0.083	1.231	-0.154	-28.931	20.813	79.773	87.81	-4.88	-115.65	-26.852	-42.238	27.440	0.48654	0.29868	-0.59824	-0.56216	24.2	13111	100
2025-3-20 10:50:44.265	WT901BLE68(E947F43FF2E9)	-0.199	2.481	-1.216	40.222	-4.944	19.653	84.77	-19.80	133.17	22.246	-65.758	8.330	-0.51981	-0.23346	-0.58585	-0.57617	26.0	13111	100
2025-3-20 10:50:44.323	WT901BLE68(E947F43FF2E9)	0.070	0.711	-0.032	15.076	24.963	-89.294	84.88	-11.65	133.76	22.246	-65.758	8.330	-0.23599	-0.32385	-0.59363	-0.69778	26.0	13111	100
2025-3-20 10:50:44.348	WT901BLE68(490AABDC0D29)	0.333	1.549	-0.121	-54.810	79.468	153.320	82.63	-16.30	-109.63	-26.852	-42.238	27.440	0.48654	0.29868	-0.59824	-0.56216	24.2	13111	100
2025-3-20 10:50:44.446	WT901BLE68(E947F43FF2E9)	0.022	1.027	-0.078	6.104	19.714	-45.532	85.39	-6.37	132.37	22.246	-65.758	8.330	-0.23599	-0.32385	-0.59363	-0.69778	26.0	13111	100
2025-3-20 10:50:44.468	WT901BLE68(490AABDC0D29)	-0.206	0.394	-0.163	-14.648	86.487	78.674	74.64	-25.02	-96.20	-38.906	-27.342	10.192	0.48654	0.29868	-0.59824	-0.56216	24.2	13111	100
2025-3-20 10:50:44.526	WT901BLE68(490AABDC0D29)	-0.174	0.510	0.027	61.890	10.010	-81.604	75.95	-20.50	-91.47	-38.906	-27.342	10.192	0.48654	0.29868	-0.59824	-0.56216	24.2	13111	100
2025-3-20 10:50:44.535	WT901BLE68(E947F43FF2E9)	-0.096	0.982	-0.052	-5.310	1.587	-35.767	85.57	-2.52	130.98	32.830	-63.896	11.074	-0.23599	-0.32385	-0.59363	-0.69778	26.0	13111	100
2025-3-20 10:50:44.648	WT901BLE68(490AABDC0D29)	-0.236	1.075	0.239	100.708	80.750	-185.608	85.46	-3.92	-90.71	-38.906	-27.342	10.192	0.48654	0.29868	-0.59824	-0.56216	24.2	13111	100
2025-3-20 10:50:44.655	WT901BLE68(E947F43FF2E9)	-0.142	0.996	-0.021	-12.634	-3.113	-36.560	84.97	1.10	129.54	32.830	-63.896	11.074	-0.23599	-0.32385	-0.59363	-0.69778	26.0	13111	100
2025-3-20 10:50:44.736	WT901BLE68(490AABDC0D29)	0.996	1.524	0.377	101.135	60.852	-207.642	96.11	16.81	-83.89	-38.906	-27.342	10.192	0.41190	0.61792	-0.41599	-0.52475	24.2	13111	100
2025-3-20 10:50:44.745	WT901BLE68(E947F43FF2E9)	-0.198	0.979	-0.006	-19.714	-1.770	-32.532	83.70	4.45	127.27	32.830	-63.896	11.074	-0.35803	-0.26794	-0.60947	-0.65454	26.0	13111	100
2025-3-20 10:50:44.856	WT901BLE68(490AABDC0D29)	0.652	1.297	0.403	39.307	-55.420	-105.957	101.94	33.24	-86.51	-38.906	-27.342	10.192	0.41190	0.61792	-0.41599	-0.52475	24.2	13111	100
2025-3-20 10:50:44.865	WT901BLE68(E947F43FF2E9)	-0.289	1.027	0.025	-23.560	-1.038	-29.724	82.04	7.34	125.85	32.830	-63.896	11.074	-0.35803	-0.26794	-0.60947	-0.65454	26.0	13111	100
2025-3-20 10:50:44.923	WT901BLE68(E947F43FF2E9)	-0.102	1.103	0.054	-41.931	-5.920	-43.152	79.09	11.00	123.74	43.806	-58.898	5.782	-0.35803	-0.26794	-0.60947	-0.65454	26.0	13111	100
2025-3-20 10:50:44.948	WT901BLE68(490AABDC0D29)	-0.016	1.301	-0.038	-2.808	-95.520	89.233	94.79	27.79	-95.93	-1.568	-44.884	25.382	0.41190	0.61792	-0.41599	-0.52475	24.2	13111	100
2025-3-20 10:50:45.44	WT901BLE68(E947F43FF2E9)	-0.074	1.326	0.043	-47.974	-44.434	-73.181	74.69	15.45	118.36	43.806	-58.898	5.782	-0.35803	-0.26794	-0.60947	-0.65454	26.0	13111	100
2025-3-20 10:50:45.67	WT901BLE68(490AABDC0D29)	-0.062	1.023	-0.088	-4.272	-22.095	53.223	91.21	18.80	-104.83	-1.568	-44.884	25.382	0.33170	0.47946	-0.52209	-0.62241	24.2	13111	100
2025-3-20 10:50:45.127	WT901BLE68(490AABDC0D29)	-0.050	0.983	-0.089	-0.854	-0.610	29.358	90.26	14.13	-109.60	-1.568	-44.884	25.382	0.33170	0.47946	-0.52209	-0.62241	24.2	13111	100
