Timestamp,AccX,AccY,AccZ,AsX,AsY,AsZ,AngX,AngY,AngZ,HX,HY,HZ,Q0,Q1,Q2,Q3
2025-03-10 15:32:28.872,0.0,0.011,1.017,0.0,0.0,0.0,0.615,0.088,-163.021,,,,,,,
2025-03-10 15:32:28.872,-0.0,0.011,1.016,0.0,0.0,0.0,0.615,0.088,-163.021,-0.575,-2.083,-0.425,,,,
2025-03-10 15:32:28.872,-0.002,0.011,1.016,0.0,0.0,0.0,0.615,0.088,-163.021,-0.575,-2.083,-0.425,,,,
2025-03-10 15:32:28.872,-0.002,0.01,1.015,0.0,0.0,0.0,0.615,0.088,-163.021,-0.575,-2.083,-0.425,,,,
2025-03-10 15:32:28.872,-0.002,0.01,1.015,0.0,0.0,0.0,0.615,0.088,-163.021,-0.575,-2.083,-0.425,,,,
2025-03-10 15:32:28.872,-0.002,0.012,1.016,0.0,0.0,0.0,0.615,0.088,-163.021,-0.575,-2.083,-0.425,,,,
2025-03-10 15:32:28.872,0.001,0.015,1.018,0.0,0.0,0.0,0.615,0.088,-163.021,-0.575,-2.083,-0.425,,,,
2025-03-10 15:32:28.872,-0.0,0.013,1.017,0.0,0.0,0.0,0.615,0.088,-163.021,-0.575,-2.083,-0.425,,,,
2025-03-10 15:32:28.872,-0.001,0.012,1.017,0.0,0.0,0.0,0.615,0.088,-163.021,-0.575,-2.083,-0.425,,,,
2025-03-10 15:32:28.873,-0.0,0.012,1.017,0.0,0.0,0.0,0.615,0.088,-163.021,-0.575,-2.083,-0.425,,,,
2025-03-10 15:32:28.873,-0.001,0.011,1.016,0.0,0.0,0.0,0.615,0.088,-163.021,-0.575,-2.083,-0.425,,,,
2025-03-10 15:32:28.873,-0.002,0.011,1.016,0.0,0.0,0.0,0.615,0.088,-163.021,-0.575,-2.083,-0.425,,,,
2025-03-10 15:32:28.873,-0.002,0.01,1.015,0.0,0.0,0.0,0.61,0.088,-163.021,-0.575,-2.083,-0.425,,,,
2025-03-10 15:32:28.873,-0.002,0.01,1.016,0.0,0.0,0.0,0.61,0.088,-163.021,-0.575,-2.083,-0.425,,,,
2025-03-10 15:32:28.873,-0.001,0.01,1.015,0.0,0.0,0.0,0.61,0.088,-163.021,-0.575,-2.083,-0.425,,,,
2025-03-10 15:32:28.873,-0.002,0.01,1.015,0.0,0.0,0.0,0.61,0.088,-163.021,-0.575,-2.083,-0.425,,,,
2025-03-10 15:32:28.873,-0.002,0.011,1.016,0.0,0.0,0.0,0.61,0.088,-163.021,-0.575,-2.083,-0.425,,,,
2025-03-10 15:32:28.873,-0.002,0.011,1.017,0.0,0.0,0.0,0.61,0.093,-163.021,-0.575,-2.083,-0.425,,,,
2025-03-10 15:32:28.873,-0.002,0.011,1.016,0.0,0.0,0.0,0.61,0.093,-163.021,-0.575,-2.083,-0.425,,,,
2025-03-10 15:32:28.873,-0.001,0.011,1.016,0.0,0.0,0.0,0.61,0.093,-163.021,-0.575,-2.083,-0.425,,,,
2025-03-10 15:32:28.873,-0.001,0.009,1.017,0.0,0.0,0.0,0.61,0.093,-163.021,-0.575,-2.083,-0.425,,,,
2025-03-10 15:32:28.873,-0.002,0.011,1.016,0.0,0.0,0.0,0.61,0.093,-163.021,-0.575,-2.083,-0.425,,,,
2025-03-10 15:32:28.873,0.0,0.014,1.018,0.0,0.0,0.0,0.61,0.093,-163.021,-0.575,-2.083,-0.425,,,,
2025-03-10 15:32:28.873,0.0,0.015,1.018,0.0,0.0,0.0,0.61,0.093,-163.021,-0.575,-2.083,-0.425,,,,
2025-03-10 15:32:28.873,0.0,0.013,1.017,0.0,0.0,0.0,0.61,0.088,-163.021,-0.575,-2.083,-0.425,,,,
2025-03-10 15:32:28.873,0.0,0.01,1.017,0.0,0.0,0.0,0.61,0.088,-163.021,-0.575,-2.083,-0.425,,,,
2025-03-10 15:32:28.873,-0.001,0.009,1.016,0.0,0.0,0.0,0.61,0.088,-163.021,-0.575,-2.083,-0.425,,,,
2025-03-10 15:32:28.873,-0.002,0.009,1.016,0.0,0.0,0.0,0.61,0.088,-163.021,-0.575,-2.083,-0.425,,,,
2025-03-10 15:32:28.873,-0.003,0.011,1.016,0.0,0.0,0.0,0.61,0.088,-163.021,-0.575,-2.083,-0.425,,,,
2025-03-10 15:32:28.873,-0.003,0.01,1.015,0.0,0.0,0.0,0.61,0.088,-163.021,-0.575,-2.083,-0.425,,,,
2025-03-10 15:32:28.979,-0.003,0.01,1.016,0.0,0.0,0.0,0.61,0.088,-163.021,-0.575,-2.083,-0.425,,,,
2025-03-10 15:32:29.085,-0.002,0.01,1.016,0.0,0.0,0.0,0.61,0.088,-163.021,-0.575,-2.083,-0.425,0.14758,0.00156,-0.00516,-0.98898
2025-03-10 15:32:29.190,-0.002,0.01,1.017,0.0,0.0,0.0,0.61,0.088,-163.021,-0.575,-2.083,-0.425,0.14758,0.00156,-0.00516,-0.98898
2025-03-10 15:32:29.296,-0.001,0.01,1.016,0.0,0.0,0.0,0.61,0.088,-163.021,-0.575,-2.092,-0.425,0.14758,0.00156,-0.00516,-0.98898
2025-03-10 15:32:29.401,-0.001,0.011,1.017,0.0,0.0,0.0,0.61,0.088,-163.021,-0.575,-2.092,-0.425,0.14758,0.00156,-0.00516,-0.98898
2025-03-10 15:32:29.506,-0.0,0.011,1.016,0.0,0.0,0.0,0.61,0.093,-163.021,-0.575,-2.092,-0.425,0.14758,0.00159,-0.00513,-0.98898
2025-03-10 15:32:29.607,0.001,0.012,1.018,0.0,0.0,0.0,0.61,0.093,-163.021,-0.575,-2.092,-0.425,0.14758,0.00159,-0.00513,-0.98898
2025-03-10 15:32:29.709,0.0,0.013,1.018,0.0,0.0,0.0,0.61,0.093,-163.021,-0.575,-2.092,-0.425,0.14758,0.00159,-0.00513,-0.98898
2025-03-10 15:32:29.814,-0.002,0.012,1.016,0.0,0.0,0.0,0.61,0.093,-163.021,-0.558,-2.083,-0.425,0.14758,0.00159,-0.00513,-0.98898
2025-03-10 15:32:29.919,-0.003,0.011,1.015,0.0,0.0,0.0,0.61,0.093,-163.021,-0.558,-2.083,-0.425,0.14758,0.00159,-0.00513,-0.98898
2025-03-10 15:32:30.023,-0.003,0.01,1.016,0.0,0.0,0.0,0.61,0.093,-163.021,-0.558,-2.083,-0.425,0.14758,0.00159,-0.00513,-0.98898
2025-03-10 15:32:30.126,-0.002,0.011,1.016,0.0,0.0,0.0,0.61,0.093,-163.021,-0.558,-2.083,-0.425,0.14758,0.00159,-0.00513,-0.98898
2025-03-10 15:32:30.232,-0.0,0.011,1.017,0.0,0.0,0.0,0.61,0.093,-163.021,-0.55,-2.092,-0.417,0.14758,0.00159,-0.00513,-0.98898
2025-03-10 15:32:30.337,-0.0,0.012,1.017,0.0,0.0,0.0,0.61,0.093,-163.021,-0.55,-2.092,-0.417,0.14758,0.00159,-0.00513,-0.98898
2025-03-10 15:32:30.439,-0.001,0.012,1.017,0.0,0.0,0.0,0.61,0.093,-163.021,-0.55,-2.092,-0.417,0.14758,0.00159,-0.00516,-0.98898
2025-03-10 15:32:30.545,-0.001,0.011,1.017,0.0,0.0,0.0,0.61,0.093,-163.021,-0.55,-2.092,-0.417,0.14758,0.00159,-0.00516,-0.98898
2025-03-10 15:32:30.650,-0.001,0.01,1.016,0.0,0.0,0.0,0.61,0.093,-163.021,-0.558,-2.092,-0.408,0.14758,0.00159,-0.00516,-0.98898
2025-03-10 15:32:30.651,-0.002,0.011,1.017,0.0,0.0,0.0,0.61,0.093,-163.021,-0.558,-2.092,-0.408,0.14758,0.00159,-0.00516,-0.98898
2025-03-10 15:32:30.856,-0.001,0.011,1.016,0.0,0.0,0.0,0.61,0.093,-163.021,-0.558,-2.092,-0.408,0.14758,0.00159,-0.00516,-0.98898
2025-03-10 15:32:30.857,-0.001,0.009,1.015,0.0,0.0,0.0,0.61,0.088,-163.021,-0.558,-2.092,-0.408,0.14758,0.00159,-0.00516,-0.98898
2025-03-10 15:32:30.961,-0.001,0.005,1.014,0.0,0.0,0.0,0.61,0.093,-163.021,-0.575,-2.092,-0.417,0.14758,0.00159,-0.00516,-0.98898
2025-03-10 15:32:31.064,-0.001,0.006,1.014,0.0,0.0,0.0,0.61,0.093,-163.021,-0.575,-2.092,-0.417,0.14758,0.00159,-0.00516,-0.98898
2025-03-10 15:32:31.170,-0.005,0.009,1.013,0.0,0.0,0.0,0.61,0.093,-163.021,-0.575,-2.092,-0.417,0.14758,0.00159,-0.00516,-0.98898
2025-03-10 15:32:31.274,-0.009,0.012,1.012,0.0,0.0,0.0,0.61,0.093,-163.021,-0.575,-2.092,-0.417,0.14758,0.00159,-0.00516,-0.98898
2025-03-10 15:32:31.378,-0.002,0.014,1.016,0.0,0.0,0.0,0.61,0.093,-163.021,-0.558,-2.083,-0.417,0.14758,0.00159,-0.00516,-0.98898
2025-03-10 15:32:31.483,-0.001,0.012,1.017,0.0,0.0,0.0,0.61,0.093,-163.021,-0.558,-2.083,-0.417,0.14758,0.00159,-0.00516,-0.98898
2025-03-10 15:32:31.588,0.0,0.011,1.017,0.0,0.0,0.0,0.61,0.093,-163.021,-0.558,-2.083,-0.417,0.14758,0.00159,-0.00513,-0.98898
2025-03-10 15:32:31.694,0.0,0.01,1.017,0.0,0.0,0.0,0.61,0.093,-163.021,-0.558,-2.083,-0.417,0.14758,0.00159,-0.00513,-0.98898
2025-03-10 15:32:31.798,0.0,0.01,1.018,0.0,0.0,0.0,0.61,0.093,-163.021,-0.567,-2.092,-0.425,0.14758,0.00159,-0.00513,-0.98898
2025-03-10 15:32:31.904,0.0,0.01,1.017,0.0,0.0,0.0,0.61,0.093,-163.021,-0.567,-2.092,-0.425,0.14758,0.00159,-0.00513,-0.98898
2025-03-10 15:32:32.009,-0.001,0.01,1.016,0.0,0.0,0.0,0.61,0.093,-163.021,-0.567,-2.092,-0.425,0.14758,0.00159,-0.00513,-0.98898
2025-03-10 15:32:32.115,-0.003,0.009,1.016,0.0,0.0,0.0,0.61,0.093,-163.021,-0.567,-2.092,-0.425,0.14758,0.00159,-0.00513,-0.98898
2025-03-10 15:32:32.217,-0.002,0.01,1.016,0.0,0.0,0.0,0.604,0.093,-163.021,-0.558,-2.092,-0.417,0.14758,0.00159,-0.00513,-0.98898
2025-03-10 15:32:32.323,-0.001,0.009,1.016,0.0,0.0,0.0,0.604,0.093,-163.021,-0.558,-2.092,-0.417,0.14758,0.00159,-0.00513,-0.98898
2025-03-10 15:32:32.428,-0.001,0.011,1.017,0.0,0.0,0.0,0.604,0.093,-163.021,-0.558,-2.092,-0.417,0.14758,0.00159,-0.00513,-0.98898
2025-03-10 15:32:32.531,-0.002,0.011,1.019,0.0,0.0,0.0,0.604,0.093,-163.021,-0.558,-2.092,-0.417,0.14758,0.00159,-0.00513,-0.98898
2025-03-10 15:32:32.636,-0.004,0.013,1.016,0.0,0.0,0.0,0.604,0.093,-163.021,-0.558,-2.092,-0.408,0.14758,0.00159,-0.00513,-0.98898
2025-03-10 15:32:32.739,-0.001,0.012,1.014,0.0,0.0,0.0,0.604,0.093,-163.021,-0.558,-2.092,-0.408,0.14758,0.00159,-0.00513,-0.98898
2025-03-10 15:32:32.845,0.0,0.011,1.016,0.0,0.0,0.0,0.604,0.093,-163.021,-0.558,-2.092,-0.408,0.14758,0.00159,-0.00513,-0.98898
2025-03-10 15:32:32.946,-0.002,0.012,1.015,0.0,0.0,0.0,0.61,0.093,-163.021,-0.558,-2.092,-0.408,0.14758,0.00159,-0.00513,-0.98898
2025-03-10 15:32:33.048,-0.003,0.011,1.016,0.0,0.0,0.0,0.604,0.093,-163.021,-0.558,-2.092,-0.408,0.14758,0.00159,-0.00513,-0.98898
2025-03-10 15:32:33.153,-0.003,0.012,1.015,0.0,0.0,0.0,0.604,0.093,-163.021,-0.575,-2.092,-0.417,0.14758,0.00159,-0.00513,-0.98898
2025-03-10 15:32:33.258,-0.004,0.012,1.015,0.0,0.0,0.0,0.604,0.093,-163.021,-0.575,-2.092,-0.417,0.14758,0.00159,-0.00513,-0.98898
2025-03-10 15:32:33.258,-0.006,0.013,1.013,0.0,0.0,0.0,0.604,0.093,-163.021,-0.575,-2.092,-0.417,0.14758,0.00159,-0.00513,-0.98898
2025-03-10 15:32:33.469,-0.0,0.008,1.016,0.0,0.0,0.0,0.61,0.093,-163.021,-0.575,-2.092,-0.417,0.14758,0.00159,-0.00513,-0.98898
2025-03-10 15:32:33.470,0.002,0.006,1.018,0.0,0.0,0.0,0.61,0.093,-163.021,-0.558,-2.1,-0.417,0.14758,0.00159,-0.00513,-0.98898
2025-03-10 15:32:33.681,0.0,0.01,1.017,0.0,0.0,0.0,0.604,0.093,-163.021,-0.558,-2.1,-0.417,0.14758,0.00159,-0.00513,-0.98898
2025-03-10 15:32:33.681,-0.002,0.012,1.016,0.0,0.0,0.0,0.604,0.093,-163.021,-0.558,-2.1,-0.417,0.14758,0.00159,-0.00513,-0.98898
2025-03-10 15:32:33.890,-0.002,0.013,1.017,0.0,0.0,0.0,0.604,0.093,-163.021,-0.558,-2.1,-0.417,0.14758,0.00159,-0.00513,-0.98898
2025-03-10 15:32:33.890,-0.001,0.012,1.017,0.0,0.0,0.0,0.604,0.093,-163.021,-0.575,-2.092,-0.417,0.14758,0.00159,-0.00513,-0.98898
2025-03-10 15:32:34.099,0.0,0.011,1.017,0.0,0.0,0.0,0.604,0.093,-163.021,-0.575,-2.092,-0.417,0.14758,0.00159,-0.00513,-0.98898
2025-03-10 15:32:34.099,-0.001,0.011,1.017,0.0,0.0,0.0,0.61,0.093,-163.021,-0.575,-2.092,-0.417,0.14758,0.00159,-0.00513,-0.98898
2025-03-10 15:32:34.205,-0.0,0.011,1.017,0.0,0.0,0.0,0.61,0.088,-163.021,-0.575,-2.092,-0.417,0.14758,0.00159,-0.00513,-0.98898
2025-03-10 15:32:34.310,0.005,0.013,1.019,0.0,-0.122,0.0,0.61,0.093,-163.021,-0.558,-2.092,-0.417,0.14758,0.00159,-0.00513,-0.98898
2025-03-10 15:32:34.415,0.002,0.017,1.017,0.0,-0.061,0.0,0.61,0.093,-163.021,-0.558,-2.092,-0.417,0.14758,0.00159,-0.00513,-0.98898
2025-03-10 15:32:34.521,-0.002,0.016,1.017,0.0,0.0,0.0,0.61,0.093,-163.021,-0.558,-2.092,-0.417,0.14758,0.00162,-0.00516,-0.98898
2025-03-10 15:32:34.622,-0.005,0.015,1.014,0.0,0.0,0.0,0.61,0.099,-163.021,-0.558,-2.092,-0.417,0.14758,0.00162,-0.00516,-0.98898
2025-03-10 15:32:34.728,-0.005,0.014,1.013,0.0,0.0,0.0,0.615,0.099,-163.021,-0.558,-2.092,-0.408,0.14758,0.00162,-0.00516,-0.98898
2025-03-10 15:32:34.834,-0.003,0.013,1.015,0.0,0.0,0.0,0.615,0.093,-163.021,-0.558,-2.092,-0.408,0.14758,0.00162,-0.00516,-0.98898
2025-03-10 15:32:34.939,-0.002,0.011,1.017,0.061,0.0,0.0,0.61,0.093,-163.021,-0.558,-2.092,-0.408,0.14758,0.00162,-0.00516,-0.98898
2025-03-10 15:32:35.045,0.0,0.009,1.017,0.0,0.0,0.0,0.61,0.093,-163.021,-0.558,-2.092,-0.408,0.14758,0.00162,-0.00516,-0.98898
2025-03-10 15:32:35.150,-0.0,0.009,1.017,0.0,0.0,0.0,0.61,0.093,-163.021,-0.558,-2.092,-0.408,0.14758,0.00162,-0.00516,-0.98898
2025-03-10 15:32:35.256,-0.002,0.01,1.016,0.0,0.0,0.0,0.61,0.093,-163.021,-0.558,-2.092,-0.408,0.14758,0.00162,-0.00516,-0.98898
2025-03-10 15:32:35.361,-0.002,0.012,1.016,0.0,0.0,0.0,0.61,0.093,-163.021,-0.558,-2.092,-0.408,0.14758,0.00162,-0.00516,-0.98898
2025-03-10 15:32:35.467,-0.002,0.012,1.016,0.0,0.0,0.0,0.61,0.093,-163.021,-0.558,-2.092,-0.408,0.14758,0.00162,-0.00516,-0.98898
2025-03-10 15:32:35.572,-0.002,0.012,1.016,0.0,0.0,0.0,0.61,0.099,-163.021,-0.558,-2.092,-0.408,0.14758,0.00162,-0.00516,-0.98898
2025-03-10 15:32:35.678,-0.002,0.012,1.016,0.0,0.0,0.0,0.615,0.099,-163.021,-0.558,-2.092,-0.408,0.14758,0.00162,-0.00516,-0.98898
2025-03-10 15:32:35.783,-0.002,0.011,1.017,0.0,0.0,0.0,0.615,0.099,-163.021,-0.558,-2.092,-0.408,0.14758,0.00162,-0.00516,-0.98898
2025-03-10 15:32:35.889,-0.001,0.011,1.017,0.0,0.0,0.0,0.615,0.099,-163.021,-0.558,-2.092,-0.408,0.14758,0.00165,-0.00516,-0.98898
2025-03-10 15:32:35.889,-0.0,0.01,1.017,0.0,0.0,0.0,0.615,0.099,-163.021,-0.558,-2.092,-0.408,0.14758,0.00165,-0.00516,-0.98898
2025-03-10 15:32:36.100,-0.671,0.257,1.038,1.892,-1.282,-14.343,0.637,0.093,-163.652,-0.558,-2.092,-0.417,0.14758,0.00165,-0.00516,-0.98898
2025-03-10 15:32:36.100,0.013,0.031,1.029,-0.183,0.061,-7.202,0.615,0.319,-168.382,-0.558,-2.092,-0.417,0.14758,0.00165,-0.00516,-0.98898
2025-03-10 15:32:36.206,-0.008,0.007,1.011,-0.122,0.0,0.0,0.615,0.275,-168.415,-0.558,-2.092,-0.417,0.1011,0.00311,-0.00507,-0.99481
2025-03-10 15:32:36.311,-0.009,0.005,1.014,-0.061,-0.061,0.0,0.621,0.253,-168.459,-0.558,-2.092,-0.417,0.1011,0.00311,-0.00507,-0.99481
2025-03-10 15:32:36.415,-0.011,0.01,1.015,0.0,-0.061,0.0,0.615,0.242,-168.497,-0.408,-2.092,-0.4,0.1011,0.00311,-0.00507,-0.99481
2025-03-10 15:32:36.520,-0.009,0.013,1.015,0.0,-0.061,0.0,0.621,0.236,-168.541,-0.408,-2.092,-0.4,0.1011,0.00311,-0.00507,-0.99481
2025-03-10 15:32:36.626,-0.006,0.011,1.016,0.0,0.0,0.0,0.621,0.225,-168.574,-0.408,-2.092,-0.4,0.09958,0.00253,-0.00519,-0.99496
2025-03-10 15:32:36.731,-0.003,0.011,1.017,0.0,0.0,0.0,0.621,0.22,-168.607,-0.408,-2.092,-0.4,0.09958,0.00253,-0.00519,-0.99496
2025-03-10 15:32:36.837,-0.001,0.011,1.016,0.0,-0.061,0.0,0.621,0.22,-168.635,-0.4,-2.1,-0.4,0.09958,0.00253,-0.00519,-0.99496
2025-03-10 15:32:36.942,-0.0,0.011,1.016,0.0,0.0,0.0,0.621,0.214,-168.657,-0.4,-2.1,-0.4,0.09958,0.00253,-0.00519,-0.99496
2025-03-10 15:32:37.048,-0.0,0.011,1.017,0.0,0.0,0.0,0.626,0.209,-168.679,-0.4,-2.1,-0.4,0.0986,0.00238,-0.00525,-0.99506
2025-03-10 15:32:37.153,-0.002,0.012,1.017,0.0,0.0,0.0,0.626,0.209,-168.706,-0.4,-2.1,-0.4,0.0986,0.00238,-0.00525,-0.99506
2025-03-10 15:32:37.256,-0.002,0.012,1.016,0.0,-0.061,0.0,0.626,0.203,-168.734,-0.4,-2.108,-0.408,0.0986,0.00238,-0.00525,-0.99506
2025-03-10 15:32:37.361,-0.003,0.012,1.017,0.0,0.0,0.0,0.626,0.203,-168.761,-0.4,-2.108,-0.408,0.0986,0.00238,-0.00525,-0.99506
2025-03-10 15:32:37.464,-0.002,0.011,1.017,0.0,0.0,0.0,0.626,0.203,-168.783,-0.4,-2.108,-0.408,0.0986,0.00238,-0.00525,-0.99506
2025-03-10 15:32:37.569,-0.002,0.011,1.016,0.0,0.0,0.0,0.626,0.198,-168.81,-0.4,-2.108,-0.408,0.09766,0.00229,-0.00528,-0.99515
2025-03-10 15:32:37.672,-0.002,0.01,1.016,-0.061,0.0,0.0,0.626,0.198,-168.832,-0.4,-2.108,-0.408,0.09766,0.00229,-0.00528,-0.99515
2025-03-10 15:32:37.778,-0.003,0.01,1.017,0.0,0.0,0.0,0.626,0.192,-168.854,-0.4,-2.1,-0.4,0.09766,0.00229,-0.00528,-0.99515
2025-03-10 15:32:37.883,0.007,-0.004,1.006,0.122,0.0,0.671,0.549,0.049,-168.151,-0.4,-2.1,-0.4,0.09766,0.00229,-0.00528,-0.99515
2025-03-10 15:32:37.989,-0.007,0.006,0.994,0.061,-0.122,0.0,0.522,-0.027,-168.19,-0.4,-2.1,-0.4,0.10315,0.00073,-0.0047,-0.9946
2025-03-10 15:32:38.094,-0.004,0.011,1.004,0.0,-0.061,0.0,0.516,-0.049,-168.212,-0.4,-2.1,-0.4,0.10315,0.00073,-0.0047,-0.9946
2025-03-10 15:32:38.094,-0.001,0.007,1.016,0.0,-0.122,0.0,0.522,-0.049,-168.223,-0.433,-2.1,-0.4,0.10315,0.00073,-0.0047,-0.9946
2025-03-10 15:32:38.303,-0.001,0.008,1.019,0.0,-0.061,0.0,0.522,-0.044,-168.245,-0.433,-2.1,-0.4,0.10315,0.00073,-0.0047,-0.9946
2025-03-10 15:32:38.303,-0.002,0.013,1.02,0.0,-0.061,0.0,0.527,-0.033,-168.256,-0.433,-2.1,-0.4,0.10233,9e-05,-0.00458,-0.99469
2025-03-10 15:32:38.511,-0.003,0.011,1.019,0.0,-0.061,0.0,0.533,-0.022,-168.267,-0.433,-2.1,-0.4,0.10233,9e-05,-0.00458,-0.99469
2025-03-10 15:32:38.511,-0.002,0.01,1.021,0.0,0.0,0.0,0.538,-0.011,-168.283,-0.425,-2.108,-0.408,0.10233,9e-05,-0.00458,-0.99469
2025-03-10 15:32:38.722,-0.002,0.012,1.017,0.0,0.0,0.0,0.544,0.0,-168.289,-0.425,-2.108,-0.408,0.10233,9e-05,-0.00458,-0.99469
2025-03-10 15:32:38.722,-0.002,0.011,1.015,0.0,0.0,0.0,0.549,0.0,-168.3,-0.425,-2.108,-0.408,0.10193,0.00049,-0.00476,-0.99472
2025-03-10 15:32:38.933,-0.002,0.011,1.016,0.0,0.0,0.0,0.555,0.011,-168.311,-0.425,-2.108,-0.408,0.10193,0.00049,-0.00476,-0.99472
2025-03-10 15:32:38.933,-0.001,0.01,1.017,0.0,0.0,0.0,0.56,0.016,-168.322,-0.425,-2.1,-0.408,0.10193,0.00049,-0.00476,-0.99472
2025-03-10 15:32:39.038,-0.002,0.011,1.016,0.0,0.0,0.0,0.566,0.027,-168.333,-0.425,-2.1,-0.408,0.10193,0.00049,-0.00476,-0.99472
2025-03-10 15:32:39.144,-0.002,0.011,1.016,0.0,0.0,0.0,0.566,0.033,-168.344,-0.425,-2.1,-0.408,0.10153,0.00079,-0.00488,-0.99478
2025-03-10 15:32:39.249,-0.002,0.012,1.017,0.0,0.0,0.0,0.571,0.044,-168.354,-0.425,-2.1,-0.408,0.10153,0.00079,-0.00488,-0.99478
2025-03-10 15:32:39.355,-0.003,0.011,1.017,0.0,0.0,0.0,0.577,0.049,-168.36,-0.425,-2.1,-0.408,0.10153,0.00079,-0.00488,-0.99478
2025-03-10 15:32:39.456,-0.003,0.011,1.015,0.0,0.0,0.0,0.577,0.055,-168.371,-0.425,-2.1,-0.408,0.10153,0.00079,-0.00488,-0.99478
2025-03-10 15:32:39.561,-0.003,0.01,1.016,0.0,0.0,0.0,0.582,0.06,-168.376,-0.425,-2.1,-0.408,0.10123,0.00101,-0.005,-0.99481
2025-03-10 15:32:39.667,-0.003,0.011,1.017,0.0,0.0,0.0,0.582,0.066,-168.382,-0.425,-2.1,-0.408,0.10123,0.00101,-0.005,-0.99481
2025-03-10 15:32:39.769,-0.002,0.01,1.017,0.0,0.0,0.0,0.588,0.071,-168.393,-0.425,-2.1,-0.408,0.10123,0.00101,-0.005,-0.99481
2025-03-10 15:32:39.872,-0.002,0.011,1.016,0.0,0.0,0.0,0.588,0.077,-168.398,-0.425,-2.108,-0.408,0.10123,0.00101,-0.005,-0.99481
2025-03-10 15:32:39.973,-0.003,0.011,1.017,0.0,0.0,0.0,0.593,0.082,-168.404,-0.425,-2.108,-0.408,0.10123,0.00101,-0.005,-0.99481
2025-03-10 15:32:40.079,-0.003,0.011,1.016,0.0,0.0,0.0,0.593,0.088,-168.409,-0.425,-2.108,-0.408,0.10098,0.00122,-0.00507,-0.99484
2025-03-10 15:32:40.184,0.002,-0.009,1.015,0.183,0.0,-0.244,0.538,0.115,-168.948,-0.425,-2.108,-0.408,0.10098,0.00122,-0.00507,-0.99484
2025-03-10 15:32:40.290,-0.011,0.007,1.006,0.0,0.061,0.0,0.522,0.11,-168.953,-0.408,-2.092,-0.408,0.10098,0.00122,-0.00507,-0.99484
2025-03-10 15:32:40.395,-0.006,0.007,1.012,0.0,-0.061,0.0,0.522,0.11,-168.953,-0.408,-2.092,-0.408,0.10098,0.00122,-0.00507,-0.99484
2025-03-10 15:32:40.496,-0.002,0.004,1.012,0.0,-0.061,0.0,0.527,0.11,-168.953,-0.408,-2.092,-0.408,0.09619,0.0014,-0.00446,-0.9953
2025-03-10 15:32:40.602,-0.002,0.01,1.013,0.0,-0.061,0.0,0.533,0.11,-168.953,-0.408,-2.092,-0.408,0.09619,0.0014,-0.00446,-0.9953
2025-03-10 15:32:40.707,-0.001,0.011,1.014,0.0,0.0,0.0,0.538,0.115,-168.948,-0.408,-2.092,-0.392,0.09619,0.0014,-0.00446,-0.9953
2025-03-10 15:32:40.811,-0.002,0.007,1.018,-0.061,0.0,0.0,0.544,0.121,-168.942,-0.408,-2.092,-0.392,0.09619,0.0014,-0.00446,-0.9953
2025-03-10 15:32:40.916,-0.005,0.008,1.017,-0.061,0.0,0.0,0.549,0.121,-168.942,-0.408,-2.092,-0.392,0.09628,0.0015,-0.00467,-0.9953
2025-03-10 15:32:41.019,-0.006,0.008,1.013,-0.061,0.0,0.0,0.549,0.121,-168.931,-0.408,-2.092,-0.392,0.09628,0.0015,-0.00467,-0.9953
2025-03-10 15:32:41.125,-0.003,0.01,1.016,0.0,0.0,0.0,0.555,0.121,-168.931,-0.408,-2.092,-0.4,0.09628,0.0015,-0.00467,-0.9953
2025-03-10 15:32:41.230,0.0,0.01,1.02,0.0,0.0,0.0,0.56,0.126,-168.931,-0.408,-2.092,-0.4,0.09628,0.0015,-0.00467,-0.9953
2025-03-10 15:32:41.336,0.001,0.01,1.021,-0.061,-0.061,0.0,0.56,0.126,-168.931,-0.408,-2.092,-0.4,0.09641,0.00159,-0.00476,-0.99527
2025-03-10 15:32:41.336,-0.002,0.013,1.016,0.0,-0.061,0.0,0.566,0.126,-168.931,-0.408,-2.092,-0.4,0.09641,0.00159,-0.00476,-0.99527
2025-03-10 15:32:41.547,-0.002,0.015,1.016,-0.061,0.0,0.0,0.566,0.126,-168.931,-0.417,-2.1,-0.408,0.09641,0.00159,-0.00476,-0.99527
2025-03-10 15:32:41.547,-0.002,0.013,1.017,0.0,0.0,0.0,0.571,0.126,-168.931,-0.417,-2.1,-0.408,0.09641,0.00159,-0.00476,-0.99527
2025-03-10 15:32:41.653,-0.001,0.012,1.018,0.0,-0.061,0.0,0.571,0.126,-168.931,-0.417,-2.1,-0.408,0.09641,0.00162,-0.00485,-0.99527
2025-03-10 15:32:41.756,-0.004,0.01,1.015,0.0,0.0,0.0,0.577,0.126,-168.931,-0.417,-2.1,-0.408,0.09641,0.00162,-0.00485,-0.99527
2025-03-10 15:32:41.861,-0.003,0.01,1.016,0.0,0.0,0.0,0.577,0.126,-168.931,-0.408,-2.092,-0.408,0.09641,0.00162,-0.00485,-0.99527
2025-03-10 15:32:41.967,-0.002,0.008,1.016,0.0,0.0,0.0,0.582,0.132,-168.931,-0.408,-2.092,-0.408,0.09641,0.00162,-0.00485,-0.99527
2025-03-10 15:32:42.072,-0.002,0.01,1.017,0.0,0.0,0.0,0.582,0.132,-168.931,-0.408,-2.092,-0.408,0.09637,0.00165,-0.00494,-0.99527
2025-03-10 15:32:42.178,-0.002,0.011,1.017,0.0,0.0,0.0,0.588,0.132,-168.931,-0.408,-2.092,-0.408,0.09637,0.00165,-0.00494,-0.99527
2025-03-10 15:32:42.281,-0.005,0.013,1.016,0.0,0.0,0.0,0.588,0.132,-168.931,-0.408,-2.1,-0.408,0.09637,0.00165,-0.00494,-0.99527
2025-03-10 15:32:42.386,-0.005,0.013,1.016,0.0,0.0,0.0,0.588,0.137,-168.931,-0.408,-2.1,-0.408,0.09637,0.00165,-0.00494,-0.99527
2025-03-10 15:32:42.487,-0.003,0.012,1.017,0.0,0.0,0.0,0.588,0.137,-168.931,-0.408,-2.1,-0.408,0.09637,0.00165,-0.00494,-0.99527
2025-03-10 15:32:42.589,-0.002,0.011,1.017,0.0,0.0,0.0,0.593,0.137,-168.931,-0.408,-2.1,-0.408,0.09637,0.00168,-0.005,-0.99527
